,block_index,trial,trial_onset(s),stimulus_type,resp_key,rt(s),correct,is_omission,is_comission
0,,0,36.15195750000203,Go,,0.0,Incorrect,True,False
1,,1,38.14040039999964,Go,space,0.6251656999993429,Correct,False,False
2,,2,39.11373330000061,Go,space,0.3351538000024447,Correct,False,False
3,,3,40.09811350000018,No_go,space,0.2166698000000906,Incorrect,False,True
4,,4,41.07930940000006,Go,space,0.4503785000015341,Correct,False,False
5,,5,42.06217409999954,Go,space,0.2667264999981853,Correct,False,False
6,,6,43.044463000002,Go,space,0.2514110000010987,Correct,False,False
7,,7,44.02655640000012,Go,space,0.3840913999993063,Correct,False,False
8,,8,45.009338700001535,No_go,space,0.2502155000001949,Incorrect,False,True
9,,9,45.991438500001095,Go,space,0.8500122999976156,Correct,False,False
10,,10,46.97412389999954,No_go,space,0.4998414000001503,Incorrect,False,True
11,,11,47.9564661000004,No_go,,0.0,Correct,False,False
12,,12,49.943995800000266,Go,space,0.3942880000031437,Correct,False,False
13,,13,50.92020910000065,Go,space,0.4162056000022858,Correct,False,False
14,,14,51.90255180000168,Go,space,0.433855899998889,Correct,False,False
15,,15,52.88484570000219,Go,space,0.3014726000001246,Correct,False,False
16,,16,53.86757909999869,Go,space,0.4179253999973298,Correct,False,False
17,,17,54.84885710000162,Go,space,0.6676960000004328,Correct,False,False
18,,18,55.83196379999936,Go,space,0.4854199999972479,Correct,False,False
19,,19,56.81471310000052,Go,space,0.3334267999998701,Correct,False,False
20,,20,57.79778129999977,Go,space,0.2996617999997397,Correct,False,False
21,,21,58.77922120000221,Go,space,0.3005225000015343,Correct,False,False
22,,22,59.76159689999986,Go,space,0.4000114000009489,Correct,False,False
23,,23,60.74474829999963,Go,space,0.316556000001583,Correct,False,False
24,,24,61.726727799999935,Go,space,0.467433699999674,Correct,False,False
25,,25,62.70913940000173,Go,space,0.2510598000008031,Correct,False,False
26,,26,63.69140270000207,No_go,space,0.3676524000002246,Incorrect,False,True
27,,27,64.67400020000059,Go,space,0.5188981999999669,Correct,False,False
28,,28,65.65642600000137,No_go,space,0.4324921000006725,Incorrect,False,True
29,,29,66.63927790000162,Go,space,0.6005116000014823,Correct,False,False
30,,30,67.62110630000097,Go,space,0.8996707000005699,Correct,False,False
31,,31,68.60489560000133,No_go,space,0.848356499998772,Incorrect,False,True
32,,32,69.5862715000003,No_go,,0.0,Correct,False,False
33,,33,71.57469860000128,Go,space,0.6434246999997413,Correct,False,False
34,,34,72.54996870000105,Go,space,0.4167560999994748,Correct,False,False
35,,35,73.53201400000034,Go,space,0.4850898000004235,Correct,False,False
36,,36,74.51540790000217,No_go,,0.0,Correct,False,False
37,,37,76.50372979999884,Go,space,0.3094198999970103,Correct,False,False
38,,38,77.47857339999973,Go,space,0.2836158999998588,Correct,False,False
39,,39,78.46186519999901,Go,space,0.3330678999991505,Correct,False,False
40,,40,79.44285579999996,Go,space,0.7675651000026846,Correct,False,False
41,,41,80.42551509999976,Go,space,0.6337511999990966,Correct,False,False
42,,42,81.40874679999979,Go,space,0.3663014999983716,Correct,False,False
43,,43,82.390407400002,Go,space,0.367400400002225,Correct,False,False
44,,44,83.37364460000026,Go,space,0.3669627999988734,Correct,False,False
45,1.0,45,92.60053129999868,No_go,,0.0,Correct,False,False
46,1.0,46,93.56370460000107,No_go,space,0.400692600000184,Incorrect,False,True
47,1.0,47,94.52927180000188,Go,space,0.3826965999978711,Correct,False,False
48,1.0,48,95.49465880000209,Go,space,0.2681085000003804,Correct,False,False
49,1.0,49,96.46069340000032,Go,space,0.249900399998296,Correct,False,False
50,1.0,50,97.42669490000117,Go,space,0.2164315000009082,Correct,False,False
51,1.0,51,98.39249159999964,No_go,space,0.2335266000009142,Incorrect,False,True
52,1.0,52,99.35855200000152,Go,space,0.2173388999981398,Correct,False,False
53,1.0,53,100.32391370000188,Go,space,0.2846922999997332,Correct,False,False
54,1.0,54,101.2900851000013,Go,space,0.3496830000003683,Correct,False,False
55,1.0,55,102.2560091000014,Go,space,0.3163260000001173,Correct,False,False
56,1.0,56,103.22112090000157,Go,space,0.3177479000005405,Correct,False,False
57,1.0,57,104.18675150000126,Go,space,0.4013181000009354,Correct,False,False
58,1.0,58,105.15336020000176,Go,space,0.3495774999973946,Correct,False,False
59,1.0,59,106.11895490000096,Go,space,0.2993863000010606,Correct,False,False
60,1.0,60,107.08454039999924,Go,space,0.2998336999989988,Correct,False,False
61,1.0,61,108.04955650000193,Go,space,0.3011899000011908,Correct,False,False
62,1.0,62,109.01622050000152,Go,space,0.333350299999438,Correct,False,False
63,1.0,63,109.98180270000012,Go,space,0.2834007999990717,Correct,False,False
64,1.0,64,110.94737380000151,Go,space,0.3169243000011192,Correct,False,False
65,1.0,65,111.913690100002,Go,space,0.2674124000004667,Correct,False,False
66,1.0,66,112.87908909999896,Go,space,0.2998172000006889,Correct,False,False
67,1.0,67,113.84473419999996,Go,space,0.2504724999998871,Correct,False,False
68,1.0,68,114.81044680000196,Go,space,0.2501083999995899,Correct,False,False
69,1.0,69,115.77697909999917,Go,space,0.2009951000000001,Correct,False,False
70,1.0,70,116.74135659999956,Go,space,0.3007192000004579,Correct,False,False
71,1.0,71,117.70803370000068,No_go,space,0.2669118999983766,Incorrect,False,True
72,1.0,72,118.6739376000005,Go,space,0.2664751000011165,Correct,False,False
73,1.0,73,119.6400281999995,Go,space,0.3166019999989657,Correct,False,False
74,1.0,74,120.60570849999932,Go,space,0.2996046000007482,Correct,False,False
75,1.0,75,121.57101129999864,Go,space,0.2828527999990911,Correct,False,False
76,1.0,76,122.5373424999998,No_go,space,0.3325507999979891,Incorrect,False,True
77,1.0,77,123.50308980000044,Go,space,0.3005121999995026,Correct,False,False
78,1.0,78,124.4675544999991,Go,space,0.3011805999994976,Correct,False,False
79,1.0,79,125.43331789999866,Go,space,0.2851341999994474,Correct,False,False
80,1.0,80,126.39959770000132,Go,space,0.2342037999987951,Correct,False,False
81,1.0,81,127.3652891999991,Go,space,0.2834594999985711,Correct,False,False
82,1.0,82,128.33158639999965,Go,space,0.3165043000008154,Correct,False,False
83,1.0,83,129.29782360000172,Go,space,0.2165657000005012,Correct,False,False
84,1.0,84,130.26320000000123,No_go,space,0.2840001000004122,Incorrect,False,True
85,1.0,85,131.22884160000103,Go,space,0.3335700000025099,Correct,False,False
86,1.0,86,132.1945478000016,Go,space,0.2844881999990321,Correct,False,False
87,1.0,87,133.15972229999898,No_go,space,0.2683890000007523,Incorrect,False,True
88,1.0,88,134.1262182999999,No_go,space,0.3666351000028953,Incorrect,False,True
89,1.0,89,135.0916070000021,Go,space,0.3503874000016367,Correct,False,False
90,1.0,90,136.058157200001,Go,space,0.2834293999985675,Correct,False,False
91,1.0,91,137.02331450000202,Go,space,0.3003596999988076,Correct,False,False
92,1.0,92,137.9887984999987,Go,space,0.2670650000000023,Correct,False,False
93,1.0,93,138.9553401000012,Go,space,0.4335307000001194,Correct,False,False
94,1.0,94,139.92126329999883,No_go,space,0.3172163000017463,Incorrect,False,True
95,1.0,95,140.8858293000012,Go,space,0.3510133000017958,Correct,False,False
96,1.0,96,141.85175230000095,Go,space,0.3176941000019724,Correct,False,False
97,1.0,97,142.81866230000014,No_go,space,0.3003040000003238,Incorrect,False,True
98,1.0,98,143.78398740000193,Go,space,0.3507900999975391,Correct,False,False
99,1.0,99,144.7497676000021,Go,space,0.4003468000009889,Correct,False,False
100,1.0,100,145.71531640000103,Go,space,0.3172441999995499,Correct,False,False
101,1.0,101,146.68121819999942,Go,space,0.3331847000008565,Correct,False,False
102,1.0,102,147.64707329999874,Go,space,0.3011684000011883,Correct,False,False
103,1.0,103,148.61236690000078,Go,space,0.3007249999973282,Correct,False,False
104,1.0,104,149.57776469999953,Go,space,0.3183199000013701,Correct,False,False
105,1.0,105,150.54433939999944,Go,space,0.350345599999855,Correct,False,False
106,1.0,106,151.51035899999988,No_go,space,0.3173428000009153,Incorrect,False,True
107,1.0,107,152.47623290000047,Go,space,0.2173352999998314,Correct,False,False
108,1.0,108,153.4415153000009,Go,space,0.4008178999974916,Correct,False,False
109,1.0,109,154.40795050000088,Go,space,0.2508256000000983,Correct,False,False
110,1.0,110,155.3729024000022,Go,space,0.4341171999985818,Correct,False,False
111,1.0,111,156.33925689999887,No_go,space,0.283171900002344,Incorrect,False,True
112,1.0,112,157.3038278999993,No_go,space,0.3859984000009717,Incorrect,False,True
113,1.0,113,158.27006830000028,Go,space,0.5183297000003222,Correct,False,False
114,1.0,114,159.23600710000028,Go,space,0.3004780000010214,Correct,False,False
115,1.0,115,160.20193440000003,No_go,,0.0,Correct,False,False
116,1.0,116,161.16756560000067,Go,space,0.2009895000010146,Correct,False,False
117,1.0,117,162.13326030000098,No_go,space,0.2848690999999235,Incorrect,False,True
118,1.0,118,163.09872819999873,Go,space,0.4005360000010114,Correct,False,False
119,1.0,119,164.06404140000086,Go,space,0.3856182000017725,Correct,False,False
120,1.0,120,165.03038910000032,Go,space,0.3509029000015289,Correct,False,False
121,1.0,121,165.99616859999878,Go,space,0.3010910999983025,Correct,False,False
122,1.0,122,166.9620199000019,No_go,space,0.267722100001265,Incorrect,False,True
123,1.0,123,167.92817619999914,Go,space,0.3686981999999261,Correct,False,False
124,1.0,124,168.89407009999923,Go,space,0.3500118999982078,Correct,False,False
125,1.0,125,169.85851530000218,Go,space,0.3687970999999379,Correct,False,False
126,1.0,126,170.8253904000012,Go,space,0.3333846999994421,Correct,False,False
127,1.0,127,171.79070240000146,Go,space,0.3177617999972426,Correct,False,False
128,1.0,128,172.75664999999935,Go,space,0.2674015000011422,Correct,False,False
129,1.0,129,173.72212460000085,Go,space,0.4004281000015908,Correct,False,False
130,1.0,130,174.68900249999933,No_go,space,0.3502320000006875,Incorrect,False,True
131,1.0,131,175.65433660000053,Go,space,0.399342799999431,Correct,False,False
132,1.0,132,176.6200381000017,Go,space,0.3494420999995782,Correct,False,False
133,1.0,133,177.58546639999986,Go,space,0.2678936999982397,Correct,False,False
134,1.0,134,178.55103220000092,No_go,space,0.2842249000023003,Incorrect,False,True
135,2.0,135,185.6128874999995,Go,space,0.6978419000006397,Correct,False,False
136,2.0,136,186.57804880000185,Go,space,0.3503282999990915,Correct,False,False
137,2.0,137,187.54279289999977,No_go,space,0.3668841999970027,Incorrect,False,True
138,2.0,138,188.50818150000123,No_go,,0.0,Correct,False,False
139,2.0,139,189.4746597000012,Go,space,0.5167068000009749,Correct,False,False
140,2.0,140,190.4396710000001,Go,space,0.3840922999988834,Correct,False,False
141,2.0,141,191.40524039999943,Go,space,0.3171724999992875,Correct,False,False
142,2.0,142,192.3712865000016,Go,space,0.3330232000007527,Correct,False,False
143,2.0,143,193.3376016000002,Go,space,0.3497817000024952,Correct,False,False
144,2.0,144,194.3030820999993,Go,space,0.3337472999992315,Correct,False,False
145,2.0,145,195.26838489999864,Go,space,0.2664745000001858,Correct,False,False
146,2.0,146,196.2335481000009,No_go,,0.0,Correct,False,False
147,2.0,147,197.200001600002,Go,space,0.0508239999981015,Correct,False,False
148,2.0,148,198.16625170000043,Go,space,0.3001785000014934,Correct,False,False
149,2.0,149,199.1320330999988,Go,space,0.2998729999999341,Correct,False,False
150,2.0,150,200.09694239999956,Go,space,0.301398200001131,Correct,False,False
151,2.0,151,201.06331929999945,Go,space,0.3162032999971416,Correct,False,False
152,2.0,152,202.0291380999988,Go,space,0.3167337999984738,Correct,False,False
153,2.0,153,202.99438029999877,Go,space,0.3347320000029867,Correct,False,False
154,2.0,154,203.95992280000064,Go,space,0.467736500002502,Correct,False,False
155,2.0,155,204.92684029999876,Go,space,0.4171320000023115,Correct,False,False
156,2.0,156,205.89285670000027,Go,space,0.3676422999997157,Correct,False,False
157,2.0,157,206.8581438000001,Go,space,0.2839419999982056,Correct,False,False
158,2.0,158,207.82376909999948,Go,space,0.3844514999982493,Correct,False,False
159,2.0,159,208.78965310000055,Go,space,0.3009750999990501,Correct,False,False
160,2.0,160,209.7556972999992,Go,space,0.3833816000005754,Correct,False,False
161,2.0,161,210.7210560000021,Go,space,0.2507258000005095,Correct,False,False
162,2.0,162,211.6868489000008,Go,space,0.3337339999998221,Correct,False,False
163,2.0,163,212.65234540000165,Go,space,0.367470900000626,Correct,False,False
164,2.0,164,213.6187299000012,Go,space,0.3339185999975598,Correct,False,False
165,2.0,165,214.5839890999996,No_go,space,0.2671246999998402,Incorrect,False,True
166,2.0,166,215.5500393000002,Go,space,0.3170380000010482,Correct,False,False
167,2.0,167,216.516580800002,Go,space,0.2660854999994626,Correct,False,False
168,2.0,168,217.48156970000127,Go,space,0.316319100002147,Correct,False,False
169,2.0,169,218.44743830000152,Go,space,0.3682389999994484,Correct,False,False
170,2.0,170,219.4137780000019,No_go,,0.0,Correct,False,False
171,2.0,171,220.3778667000006,Go,space,0.3190598000001046,Correct,False,False
172,2.0,172,221.34456109999883,Go,space,0.2843261000016355,Correct,False,False
173,2.0,173,222.31009070000076,Go,space,0.433824600000662,Correct,False,False
174,2.0,174,223.27613370000108,Go,space,0.400286900003266,Correct,False,False
175,2.0,175,224.24232069999923,Go,space,0.4499809000008099,Correct,False,False
176,2.0,176,225.20835710000028,No_go,space,0.6170667000005778,Incorrect,False,True
177,2.0,177,226.17386420000184,Go,space,0.9161099000011744,Correct,False,False
178,2.0,178,227.13971759999916,Go,,0.0,Incorrect,True,False
179,2.0,179,228.10459809999884,Go,space,0.1680632999996305,Correct,False,False
180,2.0,180,229.07115700000213,Go,space,0.2834081000000878,Correct,False,False
181,2.0,181,230.0365377999988,Go,space,0.3350783999994746,Correct,False,False
182,2.0,182,231.0019672999988,Go,space,0.3172161000002234,Correct,False,False
183,2.0,183,231.96826050000163,Go,space,0.349248999998963,Correct,False,False
184,2.0,184,232.93389450000177,Go,space,0.4840182999978424,Correct,False,False
185,2.0,185,233.89984439999895,Go,space,0.3336968000003253,Correct,False,False
186,2.0,186,234.86510590000037,Go,space,0.2192995000004884,Correct,False,False
187,2.0,187,235.83054690000063,Go,space,0.26837329999762,Correct,False,False
188,2.0,188,236.79729990000124,Go,space,0.4000032999974792,Correct,False,False
189,2.0,189,237.76296250000087,Go,space,0.2994700999988708,Correct,False,False
190,2.0,190,238.72883849999928,Go,space,0.2694937000014761,Correct,False,False
191,2.0,191,239.6945412999994,Go,space,0.4174191000020073,Correct,False,False
192,2.0,192,240.6596863000013,Go,space,0.3177362999995239,Correct,False,False
193,2.0,193,241.6254095000004,Go,space,0.3839713000015763,Correct,False,False
194,2.0,194,242.59103419999883,No_go,space,0.2846363999997265,Incorrect,False,True
195,2.0,195,243.55699599999932,Go,space,0.2669870999998238,Correct,False,False
196,2.0,196,244.5223956000009,No_go,space,0.250732100001187,Incorrect,False,True
197,2.0,197,245.48868940000105,Go,space,0.3559963000006974,Correct,False,False
198,2.0,198,246.4545031000016,Go,space,0.2830944999986968,Correct,False,False
199,2.0,199,247.42047470000037,Go,space,0.2175440999999409,Correct,False,False
200,2.0,200,248.3854472000021,Go,space,0.2361486000008881,Correct,False,False
201,2.0,201,249.35265570000047,No_go,space,0.2339032000018051,Incorrect,False,True
202,2.0,202,250.31821990000023,No_go,space,0.3665828999983205,Incorrect,False,True
203,2.0,203,251.28299989999869,Go,space,0.4005593000001681,Correct,False,False
204,2.0,204,252.24814960000003,Go,space,0.4521291000019118,Correct,False,False
205,2.0,205,253.2147397000008,Go,space,0.3831204000016441,Correct,False,False
206,2.0,206,254.18003650000173,No_go,,0.0,Correct,False,False
207,2.0,207,255.14637980000043,Go,space,0.500325499997416,Correct,False,False
208,2.0,208,256.1121392999994,Go,space,0.2684999000011885,Correct,False,False
209,2.0,209,257.0783612000014,Go,space,0.3005550999987463,Correct,False,False
210,2.0,210,258.0435255000011,No_go,,0.0,Correct,False,False
211,2.0,211,259.00941299999977,Go,space,0.3345201999982237,Correct,False,False
212,2.0,212,259.9747953000005,Go,space,0.2501133000005211,Correct,False,False
213,2.0,213,260.9399416000015,Go,space,0.3000485000011395,Correct,False,False
214,2.0,214,261.90706670000145,No_go,,0.0,Correct,False,False
215,2.0,215,262.8722022000002,No_go,space,0.3342998000007355,Incorrect,False,True
216,2.0,216,263.8377321000007,Go,space,0.3518435000005411,Correct,False,False
217,2.0,217,264.804449700001,Go,space,0.3166834999974526,Correct,False,False
218,2.0,218,265.76905160000024,Go,space,0.2512255999972694,Correct,False,False
219,2.0,219,266.73622420000174,Go,space,0.3995824999983597,Correct,False,False
220,2.0,220,267.7013045000021,No_go,space,0.300330699999904,Incorrect,False,True
221,2.0,221,268.6667665999994,No_go,,0.0,Correct,False,False
222,2.0,222,269.63328940000065,No_go,,0.0,Correct,False,False
223,2.0,223,270.59796130000177,Go,space,0.5176623999977892,Correct,False,False
224,2.0,224,271.56451430000016,No_go,,0.0,Correct,False,False
225,3.0,225,273.34841479999886,Go,,0.0,Incorrect,True,False
226,3.0,226,274.3117951999993,Go,space,0.3664090000020223,Correct,False,False
227,3.0,227,275.2774090000021,Go,space,0.716812899998331,Correct,False,False
228,3.0,228,276.2430764000019,Go,space,0.6158342999988236,Correct,False,False
229,3.0,229,277.20907649999936,No_go,,0.0,Correct,False,False
230,3.0,230,278.1745579000017,No_go,,0.0,Correct,False,False
231,3.0,231,279.1403629999986,No_go,,0.0,Correct,False,False
232,3.0,232,280.1062468999989,Go,space,0.383842100000038,Correct,False,False
233,3.0,233,281.07173089999924,Go,space,0.284842099998059,Correct,False,False
234,3.0,234,282.0378429000011,Go,space,0.2842763000007835,Correct,False,False
235,3.0,235,283.004684800002,Go,space,0.2829793999990215,Correct,False,False
236,3.0,236,283.9689484000009,Go,space,0.3012664000016229,Correct,False,False
237,3.0,237,284.93508139999904,Go,space,0.333861800001614,Correct,False,False
238,3.0,238,285.90067890000137,Go,space,0.3008731000008993,Correct,False,False
239,3.0,239,286.8669317999993,Go,space,0.3833159999994677,Correct,False,False
240,3.0,240,287.83229049999863,No_go,,0.0,Correct,False,False
241,3.0,241,288.7978197000011,Go,space,0.4169006000010995,Correct,False,False
242,3.0,242,289.76345030000084,No_go,,0.0,Correct,False,False
243,3.0,243,290.72957769999994,Go,space,0.3859109000004537,Correct,False,False
244,3.0,244,291.6948927000012,Go,space,0.3346498999999312,Correct,False,False
245,3.0,245,292.66139979999934,Go,space,0.4497411000011198,Correct,False,False
246,3.0,246,293.62750750000123,Go,space,0.3828269000005093,Correct,False,False
247,3.0,247,294.5921565999997,Go,space,0.2843741000033333,Correct,False,False
248,3.0,248,295.5609007999992,Go,space,0.2981779000001552,Correct,False,False
249,3.0,249,296.5239683,Go,space,0.2494049000015366,Correct,False,False
250,3.0,250,297.4894084000007,No_go,space,0.2843944999985979,Incorrect,False,True
251,3.0,251,298.45556339999894,Go,,0.0,Incorrect,True,False
252,3.0,252,299.42108010000084,Go,,0.0,Incorrect,True,False
253,3.0,253,300.38663480000105,No_go,,0.0,Correct,False,False
254,3.0,254,301.3532293999997,Go,space,0.3831962000003841,Correct,False,False
255,3.0,255,302.3189722999996,Go,space,0.2680366999993566,Correct,False,False
256,3.0,256,303.28479940000034,Go,space,0.2990255999975488,Correct,False,False
257,3.0,257,304.2512988000017,Go,space,0.3501248000029591,Correct,False,False
258,3.0,258,305.21502279999913,Go,space,0.3012544000011985,Correct,False,False
259,3.0,259,306.1815260000003,Go,space,0.2676484000003256,Correct,False,False
260,3.0,260,307.14764260000084,Go,space,0.300921299996844,Correct,False,False
261,3.0,261,308.1128183000001,Go,space,0.3023501000025135,Correct,False,False
262,3.0,262,309.0783453000004,Go,space,0.3162353000006987,Correct,False,False
263,3.0,263,310.0437931999986,Go,space,0.3833015999989584,Correct,False,False
264,3.0,264,311.0096546999994,Go,space,0.3665231999984826,Correct,False,False
265,3.0,265,311.9753329000014,Go,space,0.3501653000021179,Correct,False,False
266,3.0,266,312.941883800002,Go,space,0.3329009000008227,Correct,False,False
267,3.0,267,313.9075692000006,Go,space,0.3337339999998221,Correct,False,False
268,3.0,268,314.8730523000013,Go,space,0.6335333999995783,Correct,False,False
269,3.0,269,315.83875479999915,Go,space,0.3176457000008668,Correct,False,False
270,3.0,270,316.8043590999987,Go,space,0.3835237999992387,Correct,False,False
271,3.0,271,317.7704253000011,Go,space,0.3004684000006818,Correct,False,False
272,3.0,272,318.73619659999895,Go,space,0.3998452999985602,Correct,False,False
273,3.0,273,319.7017723999997,Go,space,0.2512120999999752,Correct,False,False
274,3.0,274,320.6677610000006,Go,space,0.2343848999989859,Correct,False,False
275,3.0,275,321.6335892999996,Go,space,0.3169490000000223,Correct,False,False
276,3.0,276,322.59962019999875,Go,space,0.2841804999989108,Correct,False,False
277,3.0,277,323.56513149999955,Go,space,0.2668195999976888,Correct,False,False
278,3.0,278,324.53073890000087,Go,space,0.3345341999993252,Correct,False,False
279,3.0,279,325.49680100000114,Go,space,0.3015288000024156,Correct,False,False
280,3.0,280,326.463255900002,Go,space,0.266271799999231,Correct,False,False
281,3.0,281,327.4289831999995,Go,space,0.3335790999990422,Correct,False,False
282,3.0,282,328.39432809999926,Go,space,0.8329936999980418,Correct,False,False
283,3.0,283,329.3603624999996,No_go,,0.0,Correct,False,False
284,3.0,284,330.32606060000035,No_go,,0.0,Correct,False,False
285,3.0,285,331.29186990000017,Go,space,0.4666048000035516,Correct,False,False
286,3.0,286,332.2575423999988,No_go,space,0.2503216000004613,Incorrect,False,True
287,3.0,287,333.2229917000004,Go,space,0.317142200001399,Correct,False,False
288,3.0,288,334.18880400000126,Go,space,0.284197299999505,Correct,False,False
289,3.0,289,335.1542112999996,Go,space,0.2506807999998273,Correct,False,False
290,3.0,290,336.1203741999998,Go,space,0.3168116999986523,Correct,False,False
291,3.0,291,337.086392600002,Go,space,0.3002457999973558,Correct,False,False
292,3.0,292,338.05207190000147,Go,space,0.333590300000651,Correct,False,False
293,3.0,293,339.01738110000224,No_go,space,0.2840272999965236,Incorrect,False,True
294,3.0,294,339.9834286000005,Go,space,0.2835404000034032,Correct,False,False
295,3.0,295,340.9494569000017,Go,space,0.2997097000006761,Correct,False,False
296,3.0,296,341.9153455000014,Go,space,0.3994593000024906,Correct,False,False
297,3.0,297,342.88046960000065,No_go,,0.0,Correct,False,False
298,3.0,298,343.84693790000165,Go,space,0.3658978999992541,Correct,False,False
299,3.0,299,344.8123282000015,Go,space,0.300697400001809,Correct,False,False
300,3.0,300,345.7781892999992,Go,space,0.2841989999978977,Correct,False,False
301,3.0,301,346.7444991000011,No_go,space,0.3161657000018749,Incorrect,False,True
302,3.0,302,347.7093316999999,Go,space,0.4012188000015158,Correct,False,False
303,3.0,303,348.6758293000021,Go,space,0.3170911000015621,Correct,False,False
304,3.0,304,349.6418197000021,Go,space,0.2492824999972072,Correct,False,False
305,3.0,305,350.60792850000144,No_go,space,0.2825128000004042,Incorrect,False,True
306,3.0,306,351.5731898000013,No_go,,0.0,Correct,False,False
307,3.0,307,352.53836539999975,Go,space,0.417951900002663,Correct,False,False
308,3.0,308,353.5038648000009,No_go,,0.0,Correct,False,False
309,3.0,309,354.4706150999991,Go,space,0.3011499000022013,Correct,False,False
310,3.0,310,355.43555969999943,Go,space,0.3507272999995621,Correct,False,False
311,3.0,311,356.40134359999865,Go,space,0.3671561000010115,Correct,False,False
312,3.0,312,357.3679550000016,No_go,,0.0,Correct,False,False
313,3.0,313,358.3347618000007,No_go,,0.0,Correct,False,False
314,3.0,314,359.2989321999994,Go,space,0.4013324000006832,Correct,False,False
315,4.0,315,366.49138510000193,No_go,,0.0,Correct,False,False
316,4.0,316,367.4574878999993,Go,space,0.3837663999984215,Correct,False,False
317,4.0,317,368.42375790000006,No_go,space,0.2847095000033732,Incorrect,False,True
318,4.0,318,369.3896104000014,Go,space,0.333204200000182,Correct,False,False
319,4.0,319,370.3559318000007,Go,space,0.4170730999976513,Correct,False,False
320,4.0,320,371.3213493000003,Go,space,0.2996476999978767,Correct,False,False
321,4.0,321,372.286437499999,Go,space,0.399812200001179,Correct,False,False
322,4.0,322,373.2518748000002,Go,space,0.3179665999996359,Correct,False,False
323,4.0,323,374.2183642000018,Go,space,0.3344722000001638,Correct,False,False
324,4.0,324,375.1837111999994,Go,space,0.3007984000032593,Correct,False,False
325,4.0,325,376.1495446000008,No_go,space,0.2510703000007197,Incorrect,False,True
326,4.0,326,377.115888700002,Go,space,0.6194658999993408,Correct,False,False
327,4.0,327,378.0817998999992,No_go,space,0.316608900000574,Incorrect,False,True
328,4.0,328,379.0473478999993,Go,space,0.3179005999991204,Correct,False,False
329,4.0,329,380.0125470999992,Go,space,0.3681838000011339,Correct,False,False
330,4.0,330,380.9778563,No_go,space,0.3198454999983369,Incorrect,False,True
331,4.0,331,381.94461690000026,No_go,space,0.316188199998578,Incorrect,False,True
332,4.0,332,382.9103943000009,Go,space,0.3681028999999398,Correct,False,False
333,4.0,333,383.87609539999903,Go,space,0.3176817000021401,Correct,False,False
334,4.0,334,384.8419701000021,Go,space,0.3499792000002344,Correct,False,False
335,4.0,335,385.8076551000013,Go,space,0.3675336999986029,Correct,False,False
336,4.0,336,386.773733500002,Go,space,0.383406199998717,Correct,False,False
337,4.0,337,387.73870810000153,No_go,,0.0,Correct,False,False
338,4.0,338,388.7047018000012,No_go,,0.0,Correct,False,False
339,4.0,339,389.6710110999993,Go,space,0.6993284999989555,Correct,False,False
340,4.0,340,390.6356063999992,Go,space,0.5836845000012545,Correct,False,False
341,4.0,341,391.6024123999996,Go,space,0.4332868999990751,Correct,False,False
342,4.0,342,392.5682822000017,Go,space,0.250708499999746,Correct,False,False
343,4.0,343,393.53376600000047,Go,space,0.2355172999996284,Correct,False,False
344,4.0,344,394.4994441000017,Go,space,0.2351923999995051,Correct,False,False
345,4.0,345,395.4653080999997,Go,space,0.2836930999983451,Correct,False,False
346,4.0,346,396.430642700001,Go,space,0.2344244999985676,Correct,False,False
347,4.0,347,397.3974856999994,Go,space,0.2358643999978085,Correct,False,False
348,4.0,348,398.3637540000018,Go,space,0.2851887999968312,Correct,False,False
349,4.0,349,399.3289475999991,Go,space,0.2174460999995062,Correct,False,False
350,4.0,350,400.2947693999995,Go,space,0.1509344999976747,Correct,False,False
351,4.0,351,401.2599871000021,No_go,space,0.116708199999266,Incorrect,False,True
352,4.0,352,402.2255202000015,Go,space,0.2683135000006587,Correct,False,False
353,4.0,353,403.1917558999994,Go,space,0.250151399999595,Correct,False,False
354,4.0,354,404.1567828000007,Go,space,0.3010777999988931,Correct,False,False
355,4.0,355,405.1227022000021,No_go,space,0.2338230000023031,Incorrect,False,True
356,4.0,356,406.0882272000017,Go,space,0.2189287999972293,Correct,False,False
357,4.0,357,407.054189800001,No_go,space,0.2499563999990641,Incorrect,False,True
358,4.0,358,408.0195907999987,Go,space,0.1676071000001684,Correct,False,False
359,4.0,359,408.9856078000012,Go,space,0.3007574000002933,Correct,False,False
360,4.0,360,409.9515582000022,Go,space,0.3004250000012689,Correct,False,False
361,4.0,361,410.9171286000019,Go,space,0.3335345000014058,Correct,False,False
362,4.0,362,411.88330700000006,Go,space,0.3006677000012132,Correct,False,False
363,4.0,363,412.8482007999992,Go,space,0.3512212000023282,Correct,False,False
364,4.0,364,413.8150843000003,Go,space,0.3169616000013775,Correct,False,False
365,4.0,365,414.7806912000015,Go,space,0.2668161000001419,Correct,False,False
366,4.0,366,415.74572080000144,No_go,,0.0,Correct,False,False
367,4.0,367,416.7116213000008,Go,space,0.3339164999997592,Correct,False,False
368,4.0,368,417.6782010999996,Go,space,0.2666667000012239,Correct,False,False
369,4.0,369,418.64359070000137,No_go,space,0.2669214000015927,Incorrect,False,True
370,4.0,370,419.6090605999998,Go,space,0.266125699999975,Correct,False,False
371,4.0,371,420.5743841000003,Go,space,0.3512234000008902,Correct,False,False
372,4.0,372,421.540742600002,No_go,,0.0,Correct,False,False
373,4.0,373,422.5075407000004,Go,space,0.3662461000021721,Correct,False,False
374,4.0,374,423.47250899999926,Go,space,0.266699099996913,Correct,False,False
375,4.0,375,424.4385666000017,Go,space,0.2331918999989284,Correct,False,False
376,4.0,376,425.4039358000009,Go,space,0.2840407000003324,Correct,False,False
377,4.0,377,426.3700032000015,Go,space,0.1683365999997477,Correct,False,False
378,4.0,378,427.3358155999995,Go,space,0.3331883999999263,Correct,False,False
379,4.0,379,428.3012563000011,Go,space,0.2503178999977535,Correct,False,False
380,4.0,380,429.2665128000008,Go,space,0.1517940999983693,Correct,False,False
381,4.0,381,430.232419,Go,space,0.2511139000016555,Correct,False,False
382,4.0,382,431.1984106000018,No_go,space,0.2497766000014962,Incorrect,False,True
383,4.0,383,432.1648396000018,Go,space,0.2671138999976392,Correct,False,False
384,4.0,384,433.1302356000015,Go,space,0.2682973000009951,Correct,False,False
385,4.0,385,434.09561459999895,Go,space,0.2835026999964611,Correct,False,False
386,4.0,386,435.0614845000018,Go,space,0.3190720999991754,Correct,False,False
387,4.0,387,436.027993300002,Go,space,0.4002939999991213,Correct,False,False
388,4.0,388,436.99290910000127,Go,space,0.250058400000853,Correct,False,False
389,4.0,389,437.95878079999966,Go,space,0.2505700000001525,Correct,False,False
390,4.0,390,438.9255158000015,Go,space,0.2993212000001222,Correct,False,False
391,4.0,391,439.8905355999996,Go,space,0.3008942999986175,Correct,False,False
392,4.0,392,440.85663829999976,Go,space,0.2354277000013098,Correct,False,False
393,4.0,393,441.82289519999904,Go,space,0.4343907000002218,Correct,False,False
394,4.0,394,442.78793190000215,Go,space,0.2498150999999779,Correct,False,False
395,4.0,395,443.7541573999988,Go,space,0.4170445999989169,Correct,False,False
396,4.0,396,444.7186588000004,No_go,space,0.3192740000013145,Incorrect,False,True
397,4.0,397,445.68505070000174,No_go,space,0.2845223999975133,Incorrect,False,True
398,4.0,398,446.6512614999992,Go,space,0.333631500001502,Correct,False,False
399,4.0,399,447.6174429999992,No_go,space,0.3160690000004251,Incorrect,False,True
400,4.0,400,448.5828712000002,Go,space,0.3334830000021611,Correct,False,False
401,4.0,401,449.5488159000015,Go,space,0.466602899999998,Correct,False,False
402,4.0,402,450.514160499999,Go,space,0.2176664999969944,Correct,False,False
403,4.0,403,451.4799774000021,Go,space,0.0171642999994219,Correct,False,False
404,4.0,404,452.4458274999997,Go,space,0.3168386999968788,Correct,False,False
405,5.0,405,454.5085703000004,No_go,,0.0,Correct,False,False
406,5.0,406,455.4756277999986,Go,space,0.3002219999980298,Correct,False,False
407,5.0,407,456.4414199000021,Go,space,0.3185185999973328,Correct,False,False
408,5.0,408,457.40805850000106,Go,space,0.3005045999998401,Correct,False,False
409,5.0,409,458.3733925000015,Go,space,0.2834851000006892,Correct,False,False
410,5.0,410,459.3390571999989,No_go,,0.0,Correct,False,False
411,5.0,411,460.3055055000005,Go,space,0.3178552000026684,Correct,False,False
412,5.0,412,461.2704104000004,No_go,space,0.2177587000005587,Incorrect,False,True
413,5.0,413,462.2358932999996,Go,space,0.2841883000000962,Correct,False,False
414,5.0,414,463.2019384000014,Go,space,0.2506562999988091,Correct,False,False
415,5.0,415,464.1686446999993,Go,space,0.2842345999997633,Correct,False,False
416,5.0,416,465.132852499999,Go,space,0.2170308999993722,Correct,False,False
417,5.0,417,466.0998637000012,Go,space,0.2678902000006928,Correct,False,False
418,5.0,418,467.065340600002,Go,space,0.2338230999994266,Correct,False,False
419,5.0,419,468.0310147000018,Go,space,0.1342050000021117,Correct,False,False
420,5.0,420,468.9968990000016,No_go,space,0.2671225999984017,Incorrect,False,True
421,5.0,421,469.9630270000016,Go,space,0.2337224000002606,Correct,False,False
422,5.0,422,470.9277789000007,Go,space,0.2827929000013682,Correct,False,False
423,5.0,423,471.8933137000022,Go,space,0.3342689999990398,Correct,False,False
424,5.0,424,472.8590064000018,Go,space,0.3344309999993129,Correct,False,False
425,5.0,425,473.8255900000004,No_go,,0.0,Correct,False,False
426,5.0,426,474.79169190000175,Go,space,0.250202300001547,Correct,False,False
427,5.0,427,475.757029700002,Go,space,0.2666883999991114,Correct,False,False
428,5.0,428,476.7225695999987,Go,space,0.2668118000001414,Correct,False,False
429,5.0,429,477.6880654999986,Go,space,0.0998680000011518,Correct,False,False
430,5.0,430,478.6544108999988,Go,space,0.432882499997504,Correct,False,False
431,5.0,431,479.6203883000017,Go,space,0.2506986999978835,Correct,False,False
432,5.0,432,480.5851156999997,Go,space,0.2210674000016297,Correct,False,False
433,5.0,433,481.5513711000021,No_go,space,0.0843505000011646,Incorrect,False,True
434,5.0,434,482.5182894999998,Go,space,0.1678724999983387,Correct,False,False
435,5.0,435,483.48366050000186,Go,space,0.1166581000034057,Correct,False,False
436,5.0,436,484.4490207000017,Go,space,0.2505599999967671,Correct,False,False
437,5.0,437,485.4146657999991,Go,space,0.2017114000009314,Correct,False,False
438,5.0,438,486.38048290000006,No_go,space,0.2680201999974088,Incorrect,False,True
439,5.0,439,487.3462671999987,Go,space,0.2167258000008587,Correct,False,False
440,5.0,440,488.3111976,Go,space,0.2184266000003845,Correct,False,False
441,5.0,441,489.27781139999934,Go,space,0.2833313000010093,Correct,False,False
442,5.0,442,490.2439311999988,Go,space,0.266594199998508,Correct,False,False
443,5.0,443,491.2094562999992,No_go,space,0.2502111000030709,Incorrect,False,True
444,5.0,444,492.17507549999937,Go,space,0.3337205999996513,Correct,False,False
445,5.0,445,493.1408010000014,Go,space,0.2348996000000625,Correct,False,False
446,5.0,446,494.1073976000007,Go,space,0.1498046000015165,Correct,False,False
447,5.0,447,495.0729355000003,Go,space,0.333595799998875,Correct,False,False
448,5.0,448,496.0388497999993,Go,space,0.3002453999979479,Correct,False,False
449,5.0,449,497.0033470999988,Go,space,0.4013254000019515,Correct,False,False
450,5.0,450,497.9697684999992,Go,space,0.218426499999623,Correct,False,False
451,5.0,451,498.9362862999988,Go,space,0.3497103999980027,Correct,False,False
452,5.0,452,499.9010888000012,Go,space,0.2676903999999922,Correct,False,False
453,5.0,453,500.8668930999993,Go,space,0.3175346999996691,Correct,False,False
454,5.0,454,501.8328063000008,Go,space,0.3012815999973099,Correct,False,False
455,5.0,455,502.79933829999936,Go,space,0.2832474999995611,Correct,False,False
456,5.0,456,503.7647207000009,Go,space,0.2338059000030625,Correct,False,False
457,5.0,457,504.7302607999991,Go,space,0.3011126999990665,Correct,False,False
458,5.0,458,505.6951072000011,Go,space,0.3024636000009195,Correct,False,False
459,5.0,459,506.662032799999,Go,space,0.3335896000025968,Correct,False,False
460,5.0,460,507.6274378999988,Go,space,0.3342768000002252,Correct,False,False
461,5.0,461,508.593131900001,Go,space,0.2336135000005015,Correct,False,False
462,5.0,462,509.5589748999992,Go,space,0.1162980000008246,Correct,False,False
463,5.0,463,510.5253888000007,Go,space,0.3659358000004431,Correct,False,False
464,5.0,464,511.4904586000012,Go,space,0.2996120999996492,Correct,False,False
465,5.0,465,512.4560133000014,Go,space,0.3174008999994839,Correct,False,False
466,5.0,466,513.4212650000009,Go,space,0.284447199999704,Correct,False,False
467,5.0,467,514.3879362000007,Go,space,0.2672740000016347,Correct,False,False
468,5.0,468,515.3536668000015,Go,space,0.2009785000009287,Correct,False,False
469,5.0,469,516.3195577000006,Go,space,0.3167367999994894,Correct,False,False
470,5.0,470,517.2861988000004,Go,space,0.2830771000008099,Correct,False,False
471,5.0,471,518.2504603999987,No_go,space,0.3684533000014198,Incorrect,False,True
472,5.0,472,519.2168521000021,No_go,,0.0,Correct,False,False
473,5.0,473,520.1827383000018,Go,space,0.4009329000000434,Correct,False,False
474,5.0,474,521.1473621000005,No_go,space,0.251038399997924,Incorrect,False,True
475,5.0,475,522.1136174000021,Go,space,0.4495378999999957,Correct,False,False
476,5.0,476,523.0797173999999,Go,space,0.2339399000011326,Correct,False,False
477,5.0,477,524.0452573000002,Go,space,0.1666321999982756,Correct,False,False
478,5.0,478,525.0112775999987,Go,space,0.2681147000002966,Correct,False,False
479,5.0,479,525.9775176000003,No_go,space,0.2829674999993585,Incorrect,False,True
480,5.0,480,526.9421270000021,No_go,,0.0,Correct,False,False
481,5.0,481,527.9082443000007,No_go,,0.0,Correct,False,False
482,5.0,482,528.8735987,Go,space,0.3679493999989063,Correct,False,False
483,5.0,483,529.8394709000022,Go,space,0.216631100000086,Correct,False,False
484,5.0,484,530.8065026000004,Go,space,0.1984222999999474,Correct,False,False
485,5.0,485,531.7712945999992,No_go,space,0.2337915000025532,Incorrect,False,True
486,5.0,486,532.7366866000011,No_go,space,0.2841617999984009,Incorrect,False,True
487,5.0,487,533.7025909000004,No_go,,0.0,Correct,False,False
488,5.0,488,534.6695661000012,No_go,,0.0,Correct,False,False
489,5.0,489,535.6353091000019,Go,space,0.4158040000002074,Correct,False,False
490,5.0,490,536.6000330999996,Go,space,0.234100199999375,Correct,False,False
491,5.0,491,537.5650421999999,Go,space,0.3022769999988668,Correct,False,False
492,5.0,492,538.5316949000007,Go,space,0.2847943999986455,Correct,False,False
493,5.0,493,539.4986203000008,Go,space,0.2828761999990092,Correct,False,False
494,5.0,494,540.4634269999988,Go,space,0.433397299999342,Correct,False,False
495,6.0,495,542.5222830000021,Go,,0.0,Incorrect,True,False
496,6.0,496,543.4780472999992,Go,space,0.0664571999986947,Correct,False,False
497,6.0,497,544.4428470000021,Go,space,0.2674976000016613,Correct,False,False
498,6.0,498,545.4089496000015,Go,space,0.2668740000008256,Correct,False,False
499,6.0,499,546.374296500002,Go,space,0.2667799999981071,Correct,False,False
500,6.0,500,547.3400107999987,Go,space,0.2502446999969834,Correct,False,False
501,6.0,501,548.3059986000007,Go,space,0.332882900002005,Correct,False,False
502,6.0,502,549.2721306999993,Go,space,0.2483630000024277,Correct,False,False
503,6.0,503,550.2362061000022,Go,space,0.233910900002229,Correct,False,False
504,6.0,504,551.2027894999992,Go,space,0.2513155000015104,Correct,False,False
505,6.0,505,552.168738299999,Go,space,0.2004826999982469,Correct,False,False
506,6.0,506,553.1346603999991,Go,space,0.1336394999998447,Correct,False,False
507,6.0,507,554.0999373000013,Go,space,0.2842086999989988,Correct,False,False
508,6.0,508,555.0662711000004,No_go,space,0.2166837000004307,Incorrect,False,True
509,6.0,509,556.0316106999999,Go,space,0.2836659999993571,Correct,False,False
510,6.0,510,556.9978689999989,Go,space,0.2830641000000469,Correct,False,False
511,6.0,511,557.9622961999994,No_go,space,0.2855842999997549,Incorrect,False,True
512,6.0,512,558.9293828000009,No_go,space,0.2338421999993443,Incorrect,False,True
513,6.0,513,559.8949080999992,No_go,space,0.3167350000003353,Incorrect,False,True
514,6.0,514,560.8595650999996,No_go,,0.0,Correct,False,False
515,6.0,515,561.8265756000001,Go,space,0.4169139999976323,Correct,False,False
516,6.0,516,562.7921930000011,No_go,space,0.1842163999972399,Incorrect,False,True
517,6.0,517,563.757167300002,Go,space,0.4341649999987567,Correct,False,False
518,6.0,518,564.7238644999998,Go,space,0.234393300001102,Correct,False,False
519,6.0,519,565.6886312999995,Go,space,0.3343722999998135,Correct,False,False
520,6.0,520,566.6550697000021,Go,space,0.2337444000004325,Correct,False,False
521,6.0,521,567.6213492999996,Go,space,0.2161234000013792,Correct,False,False
522,6.0,522,568.5872025999997,Go,space,0.1497218000004068,Correct,False,False
523,6.0,523,569.554834999999,Go,space,0.1305159000003186,Correct,False,False
524,6.0,524,570.5187662999997,Go,space,0.033986399997957,Correct,False,False
525,6.0,525,571.4833316000004,Go,space,0.2674550999981875,Correct,False,False
526,6.0,526,572.4496938000011,Go,space,0.2343301000000792,Correct,False,False
527,6.0,527,573.4164009000015,Go,space,0.3494482999994943,Correct,False,False
528,6.0,528,574.3805821999995,No_go,space,0.2506080999992264,Incorrect,False,True
529,6.0,529,575.3464753000007,Go,space,0.1019194000000425,Correct,False,False
530,6.0,530,576.3133405000008,Go,space,0.2830302999973355,Correct,False,False
531,6.0,531,577.2787556000003,No_go,space,0.283190400001331,Incorrect,False,True
532,6.0,532,578.2443883000014,Go,space,0.2500884000000951,Correct,False,False
533,6.0,533,579.2102126999998,Go,space,0.2516315000029863,Correct,False,False
534,6.0,534,580.1760839999988,Go,space,0.3328846000003977,Correct,False,False
535,6.0,535,581.1423270000014,Go,space,0.2991483999976481,Correct,False,False
536,6.0,536,582.1074980000012,No_go,space,0.2661951999980374,Incorrect,False,True
537,6.0,537,583.0724139000013,No_go,space,0.267620499998884,Incorrect,False,True
538,6.0,538,584.0392662000013,Go,space,0.3996452999999746,Correct,False,False
539,6.0,539,585.004645699999,Go,space,0.2509123000018007,Correct,False,False
540,6.0,540,585.9707639000007,Go,space,0.2662949999976263,Correct,False,False
541,6.0,541,586.9359966000011,Go,space,0.2183006000013847,Correct,False,False
542,6.0,542,587.9019561999994,Go,space,0.2668911000000662,Correct,False,False
543,6.0,543,588.8675786999993,Go,space,0.1833971000014571,Correct,False,False
544,6.0,544,589.8344796999991,Go,space,0.2999545999991824,Correct,False,False
545,6.0,545,590.7998072000009,Go,space,0.3005295000002661,Correct,False,False
546,6.0,546,591.7648235999986,Go,space,0.300921300000482,Correct,False,False
547,6.0,547,592.7303510999991,Go,space,0.3509907000006933,Correct,False,False
548,6.0,548,593.6963481000021,No_go,space,0.1843389999994542,Incorrect,False,True
549,6.0,549,594.6626630999999,Go,space,0.3329551999995601,Correct,False,False
550,6.0,550,595.6291096999994,No_go,space,0.2990697999994154,Incorrect,False,True
551,6.0,551,596.5939862000014,Go,space,0.3675425999972503,Correct,False,False
552,6.0,552,597.5598222000008,No_go,space,0.333743899998808,Incorrect,False,True
553,6.0,553,598.5255985000003,Go,space,0.3839528999997128,Correct,False,False
554,6.0,554,599.4906102999994,Go,space,0.783846900001663,Correct,False,False
555,6.0,555,600.4570128000014,Go,space,0.3677084999981161,Correct,False,False
556,6.0,556,601.422838800001,Go,space,0.2841626000008546,Correct,False,False
557,6.0,557,602.3882608000022,Go,space,0.3004126999985601,Correct,False,False
558,6.0,558,603.3550194999989,Go,space,0.286538099997415,Correct,False,False
559,6.0,559,604.3209238999989,No_go,space,0.2500137000024551,Incorrect,False,True
560,6.0,560,605.286325699999,Go,space,0.2828641999985848,Correct,False,False
561,6.0,561,606.251240900001,Go,space,0.2007482999979402,Correct,False,False
562,6.0,562,607.2165908999996,Go,space,0.3017196000000695,Correct,False,False
563,6.0,563,608.1833225000009,Go,space,0.1012016000022413,Correct,False,False
564,6.0,564,609.1486588000007,Go,space,0.4007496000012907,Correct,False,False
565,6.0,565,610.115480299999,Go,space,0.249163899999985,Correct,False,False
566,6.0,566,611.0805643000022,Go,space,0.2665798000016366,Correct,False,False
567,6.0,567,612.0455834000022,Go,space,0.034389899999951,Correct,False,False
568,6.0,568,613.0123060000005,Go,space,0.0497843000011926,Correct,False,False
569,6.0,569,613.9780151000014,No_go,,0.0,Correct,False,False
570,6.0,570,614.9427744000022,No_go,,0.0,Correct,False,False
571,6.0,571,615.909073400002,Go,space,0.383280800000648,Correct,False,False
572,6.0,572,616.8750566999988,Go,space,0.1345333000026585,Correct,False,False
573,6.0,573,617.8407643999999,Go,space,0.2680497000001196,Correct,False,False
574,6.0,574,618.8062667000013,Go,space,0.2841479999988223,Correct,False,False
575,6.0,575,619.7723511000004,Go,space,0.2672502999994322,Correct,False,False
576,6.0,576,620.7382971000006,Go,space,0.2336856000001717,Correct,False,False
577,6.0,577,621.7038310999997,Go,space,0.1339646000014909,Correct,False,False
578,6.0,578,622.6697750999992,No_go,space,0.0679076999986136,Incorrect,False,True
579,6.0,579,623.6346507999988,Go,space,0.4010362000008172,Correct,False,False
580,6.0,580,624.6008064999987,Go,space,0.2839397000025201,Correct,False,False
581,6.0,581,625.5670438999987,Go,space,0.1008718000011867,Correct,False,False
582,6.0,582,626.5326719000004,No_go,space,0.0503314999987196,Incorrect,False,True
583,6.0,583,627.4988646999991,Go,,0.0,Incorrect,True,False
584,6.0,584,628.4638802000009,Go,space,0.1337719000002835,Correct,False,False
