,block_index,trial,trial_onset(s),stimulus_type,resp_key,rt(s),correct,is_omission,is_comission
0,,0,13.621033899951726,Go,,0.0,Incorrect,True,False
1,,1,15.641715300036594,Go,space,0.5928366999141872,Correct,False,False
2,,2,16.64877500012517,No_go,space,0.5010915999300778,Incorrect,False,True
3,,3,17.665393800009042,Go,space,0.7999658999033272,Correct,False,False
4,,4,18.681134900078177,Go,space,0.7170839000027627,Correct,False,False
5,,5,19.696802499936894,Go,space,0.8835771998856217,Correct,False,False
6,,6,20.71304389997385,Go,space,0.7995573000516742,Correct,False,False
7,,7,21.727524500107396,Go,space,0.6837186000775546,Correct,False,False
8,,8,22.74388929991983,Go,space,0.6663335000630468,Correct,False,False
9,,9,23.759557200130075,No_go,,0.0,Correct,False,False
10,,10,25.78136030002497,No_go,,0.0,Correct,False,False
11,,11,27.797292900038883,Go,space,0.5596257001161575,Correct,False,False
12,,12,28.805548900039867,No_go,,0.0,Correct,False,False
13,,13,30.828893200028688,Go,space,0.540900900028646,Correct,False,False
14,,14,31.835782000096515,Go,space,0.7670023001264781,Correct,False,False
15,,15,32.85129319992848,Go,space,0.7338521999772638,Correct,False,False
16,,16,33.87072500004433,Go,space,0.7465754000004381,Correct,False,False
17,,17,34.883213999914005,Go,space,0.6824122997932136,Correct,False,False
18,,18,35.898827200056985,Go,space,0.6830915999598801,Correct,False,False
19,,19,36.91442200005986,Go,space,0.6712749998550862,Correct,False,False
20,,20,37.92976829991676,No_go,,0.0,Correct,False,False
21,,21,39.95513619994745,Go,space,0.5225742999464273,Correct,False,False
22,,22,40.96053480007686,Go,space,0.5731081000994891,Correct,False,False
23,,23,41.976380800129846,Go,space,0.5664514999371022,Correct,False,False
24,,24,42.99225870007649,Go,space,0.6609585999976844,Correct,False,False
25,,25,44.008191799977794,No_go,,0.0,Correct,False,False
26,,26,46.02910550008528,No_go,,0.0,Correct,False,False
27,,27,48.04613070003688,Go,space,0.5412047998979688,Correct,False,False
28,,28,49.05336969997734,Go,space,0.5662499000318348,Correct,False,False
29,,29,50.06903150002472,Go,space,0.5499181000050157,Correct,False,False
30,,30,51.08456340013072,Go,space,0.5335856999736279,Correct,False,False
31,,31,52.1004566999618,Go,space,0.5696916000451893,Correct,False,False
32,,32,53.11571109993383,Go,space,0.6007799000944942,Correct,False,False
33,,33,54.13130420004018,No_go,,0.0,Correct,False,False
34,,34,56.15422659995966,Go,space,0.5253966001328081,Correct,False,False
35,,35,57.16143819992431,Go,space,0.5676719001494348,Correct,False,False
36,,36,58.17767950007692,Go,space,0.5517824999988079,Correct,False,False
37,,37,59.19386600004509,Go,space,0.5503758999984711,Correct,False,False
38,,38,60.20935590006411,Go,space,0.453262299997732,Correct,False,False
39,,39,61.224652300123125,No_go,,0.0,Correct,False,False
40,,40,63.24955340009183,Go,space,0.4905671998858452,Correct,False,False
41,,41,64.2554691999685,Go,space,0.4831248000264168,Correct,False,False
42,,42,65.2717347999569,Go,space,0.5663550000172108,Correct,False,False
43,,43,66.28728180006146,Go,space,0.5167072000913322,Correct,False,False
44,,44,67.30335579998791,Go,space,0.6507763001136482,Correct,False,False
45,1.0,45,83.22735380008817,No_go,,0.0,Correct,False,False
46,1.0,46,84.21988010010682,Go,space,0.5336363001260906,Correct,False,False
47,1.0,47,85.2187759000808,Go,space,0.4850521998014301,Correct,False,False
48,1.0,48,86.21809169999324,Go,space,0.5001181000843644,Correct,False,False
49,1.0,49,87.21621230011806,Go,space,0.4845817000605166,Correct,False,False
50,1.0,50,88.21621520002373,Go,space,0.4665135000832379,Correct,False,False
51,1.0,51,89.21547499997541,Go,space,0.567019100068137,Correct,False,False
52,1.0,52,90.21440679999068,No_go,,0.0,Correct,False,False
53,1.0,53,91.2138324000407,Go,space,0.5157016997691244,Correct,False,False
54,1.0,54,92.2126005999744,Go,space,0.5331486000213772,Correct,False,False
55,1.0,55,93.211314199958,No_go,,0.0,Correct,False,False
56,1.0,56,94.21055750013328,Go,space,0.5169011000543833,Correct,False,False
57,1.0,57,95.2096700000111,Go,space,0.5334643998648971,Correct,False,False
58,1.0,58,96.20793280005456,Go,space,0.5176414998713881,Correct,False,False
59,1.0,59,97.20782670006156,No_go,,0.0,Correct,False,False
60,1.0,60,98.2067879999522,No_go,,0.0,Correct,False,False
61,1.0,61,99.20587050006723,Go,space,0.534056399948895,Correct,False,False
62,1.0,62,100.20455950009637,Go,space,0.5516983999405056,Correct,False,False
63,1.0,63,101.20430590002798,Go,space,0.5498140999116004,Correct,False,False
64,1.0,64,102.203060900094,Go,space,0.5670022000558674,Correct,False,False
65,1.0,65,103.20201630005612,Go,space,0.4841143998783082,Correct,False,False
66,1.0,66,104.20061790011825,Go,space,0.4179355001542717,Correct,False,False
67,1.0,67,105.20055570011029,Go,space,0.5498233998659998,Correct,False,False
68,1.0,68,106.19970809994264,Go,space,0.4850002001039684,Correct,False,False
69,1.0,69,107.19907029997556,Go,space,0.4829236001241952,Correct,False,False
70,1.0,70,108.1976876000408,Go,space,0.433917700080201,Correct,False,False
71,1.0,71,109.196831200039,Go,space,0.4693935001268983,Correct,False,False
72,1.0,72,110.19539669994263,Go,space,0.500064300140366,Correct,False,False
73,1.0,73,111.19500979990698,Go,space,0.4530681998003274,Correct,False,False
74,1.0,74,112.19674100005068,Go,space,0.4469298000913113,Correct,False,False
75,1.0,75,113.19233540003188,No_go,space,0.4205453000031411,Incorrect,False,True
76,1.0,76,114.19105940009467,Go,space,0.4179280998650938,Correct,False,False
77,1.0,77,115.1909803999588,Go,space,0.4347546000499278,Correct,False,False
78,1.0,78,116.19018370006232,No_go,,0.0,Correct,False,False
79,1.0,79,117.18882980011404,No_go,,0.0,Correct,False,False
80,1.0,80,118.18882629997096,Go,space,0.4838805999606848,Correct,False,False
81,1.0,81,119.18860900006256,No_go,,0.0,Correct,False,False
82,1.0,82,120.18635599990375,Go,space,0.5178141000214964,Correct,False,False
83,1.0,83,121.18579569994472,Go,space,0.5201223001349717,Correct,False,False
84,1.0,84,122.18476300011388,Go,space,0.5164932999759912,Correct,False,False
85,1.0,85,123.18413780000992,Go,space,0.4664358999580145,Correct,False,False
86,1.0,86,124.18292269995436,Go,space,0.4005994000472128,Correct,False,False
87,1.0,87,125.18167460011318,Go,space,0.3840788998641073,Correct,False,False
88,1.0,88,126.18145089992322,Go,space,0.4017255001235753,Correct,False,False
89,1.0,89,127.18001380003987,Go,space,0.4370207001920789,Correct,False,False
90,1.0,90,128.1793825000059,Go,space,0.4829172999598086,Correct,False,False
91,1.0,91,129.17847030004486,No_go,,0.0,Correct,False,False
92,1.0,92,130.1771199000068,Go,space,0.4671169999055564,Correct,False,False
93,1.0,93,131.1769059000071,Go,space,0.4659706000238657,Correct,False,False
94,1.0,94,132.17598269996233,Go,space,0.5164485999848694,Correct,False,False
95,1.0,95,133.1747358001303,Go,space,0.4834700000938028,Correct,False,False
96,1.0,96,134.17336739995517,Go,space,0.5340519000310451,Correct,False,False
97,1.0,97,135.17225129995495,Go,space,0.5178155000321567,Correct,False,False
98,1.0,98,136.17230869992636,No_go,,0.0,Correct,False,False
99,1.0,99,137.1708247999195,Go,space,0.5664941999129951,Correct,False,False
100,1.0,100,138.17014950001612,No_go,,0.0,Correct,False,False
101,1.0,101,139.16914010001346,Go,space,0.4833689001388848,Correct,False,False
102,1.0,102,140.16806520009413,Go,space,0.5000384000595659,Correct,False,False
103,1.0,103,141.16712050000206,Go,space,0.5157760998699814,Correct,False,False
104,1.0,104,142.16745790001005,Go,space,0.4835089000407606,Correct,False,False
105,1.0,105,143.16562280012295,Go,space,0.4658414998557418,Correct,False,False
106,1.0,106,144.1635871999897,Go,space,0.5343090000096709,Correct,False,False
107,1.0,107,145.1632006999571,No_go,,0.0,Correct,False,False
108,1.0,108,146.1634504001122,Go,space,0.4338257999625057,Correct,False,False
109,1.0,109,147.1620918000117,Go,space,0.3824060999322682,Correct,False,False
110,1.0,110,148.1604764999356,Go,space,0.5004894000012428,Correct,False,False
111,1.0,111,149.16114480001852,No_go,,0.0,Correct,False,False
112,1.0,112,150.15845729992725,No_go,,0.0,Correct,False,False
113,1.0,113,151.15752150001936,No_go,,0.0,Correct,False,False
114,1.0,114,152.15677900006995,Go,space,0.4327314000111073,Correct,False,False
115,1.0,115,153.1554076001048,Go,space,0.4994477001018822,Correct,False,False
116,1.0,116,154.15442220005207,Go,space,0.4822586001828313,Correct,False,False
117,1.0,117,155.153803500114,Go,space,0.4500665001105517,Correct,False,False
118,1.0,118,156.15326840011403,Go,space,0.6164983999915421,Correct,False,False
119,1.0,119,157.15175760001875,No_go,,0.0,Correct,False,False
120,1.0,120,158.15067530004308,Go,space,0.4671502001583576,Correct,False,False
121,1.0,121,159.1500381999649,Go,space,0.4325208000373095,Correct,False,False
122,1.0,122,160.14893290004693,Go,space,0.4001510001253336,Correct,False,False
123,1.0,123,161.14810590003617,Go,space,0.3505675001069903,Correct,False,False
124,1.0,124,162.14702289993875,Go,space,0.3667633000295609,Correct,False,False
125,1.0,125,163.1459433999844,Go,space,0.4174440999049693,Correct,False,False
126,1.0,126,164.1453504001256,Go,space,0.4834937998093664,Correct,False,False
127,1.0,127,165.1447266000323,No_go,,0.0,Correct,False,False
128,1.0,128,166.1438987001311,Go,space,0.5168743999674916,Correct,False,False
129,1.0,129,167.14250660012476,Go,space,0.4668870999012142,Correct,False,False
130,1.0,130,168.14116799994372,Go,space,0.5661373999901116,Correct,False,False
131,1.0,131,169.14043359993957,Go,space,0.3829243001528084,Correct,False,False
132,1.0,132,170.13952530012466,Go,space,0.38367690006271,Correct,False,False
133,1.0,133,171.1383128000889,Go,space,0.4005996000487357,Correct,False,False
134,1.0,134,172.1382269000169,Go,space,0.4168507000431418,Correct,False,False
135,2.0,135,197.50974430004132,Go,space,0.5554194999858737,Correct,False,False
136,2.0,136,198.49636500002816,No_go,,0.0,Correct,False,False
137,2.0,137,199.49579289997928,Go,space,0.4993843999691307,Correct,False,False
138,2.0,138,200.4940877000336,Go,space,0.5339961000718176,Correct,False,False
139,2.0,139,201.4937589999754,No_go,,0.0,Correct,False,False
140,2.0,140,202.4929764000699,Go,space,0.4171269000507891,Correct,False,False
141,2.0,141,203.49125079996884,Go,space,0.500602199928835,Correct,False,False
142,2.0,142,204.49087100010365,Go,space,0.4506381000392139,Correct,False,False
143,2.0,143,205.48991440003735,Go,space,0.4835660001263022,Correct,False,False
144,2.0,144,206.48853270011023,No_go,,0.0,Correct,False,False
145,2.0,145,207.48732999991623,Go,space,0.4674599000718444,Correct,False,False
146,2.0,146,208.4864495000802,Go,space,0.4506852000486105,Correct,False,False
147,2.0,147,209.48603529995307,Go,space,0.5176840999629349,Correct,False,False
148,2.0,148,210.4886255001184,No_go,,0.0,Correct,False,False
149,2.0,149,211.4843250000849,Go,space,0.436914199963212,Correct,False,False
150,2.0,150,212.48377950000577,No_go,,0.0,Correct,False,False
151,2.0,151,213.48223259998483,Go,space,0.4170145997777581,Correct,False,False
152,2.0,152,214.48122439999133,Go,space,0.4675604999065399,Correct,False,False
153,2.0,153,215.48079619999044,Go,space,0.5334507999941707,Correct,False,False
154,2.0,154,216.47919290000573,Go,space,0.4502734001725912,Correct,False,False
155,2.0,155,217.4782511999365,Go,space,0.4009365001693368,Correct,False,False
156,2.0,156,218.47733779996636,No_go,,0.0,Correct,False,False
157,2.0,157,219.47621389990672,Go,space,0.4190368000417948,Correct,False,False
158,2.0,158,220.4758218000643,No_go,,0.0,Correct,False,False
159,2.0,159,221.47522919997573,Go,space,0.387543800054118,Correct,False,False
160,2.0,160,222.47389689995907,Go,space,0.4186969001311809,Correct,False,False
161,2.0,161,223.4725419001188,Go,space,0.4507597000338137,Correct,False,False
162,2.0,162,224.4712018000428,Go,space,0.3849637000821531,Correct,False,False
163,2.0,163,225.4707325999625,Go,space,0.4003867998253554,Correct,False,False
164,2.0,164,226.4703655000776,Go,space,0.434831399936229,Correct,False,False
165,2.0,165,227.46993770007973,Go,space,0.4348373999819159,Correct,False,False
166,2.0,166,228.46902259998024,Go,space,0.3997657999861985,Correct,False,False
167,2.0,167,229.4683952999767,No_go,,0.0,Correct,False,False
168,2.0,168,230.467485900037,Go,space,0.3500741999596357,Correct,False,False
169,2.0,169,231.46624609990977,Go,space,0.3676771000027656,Correct,False,False
170,2.0,170,232.46558790002015,No_go,,0.0,Correct,False,False
171,2.0,171,233.46465450013056,Go,space,0.3501017999369651,Correct,False,False
172,2.0,172,234.463007299928,Go,space,0.5197757000569254,Correct,False,False
173,2.0,173,235.46286839991808,Go,space,0.4496355000883341,Correct,False,False
174,2.0,174,236.46110170008612,Go,space,0.4337615000549704,Correct,False,False
175,2.0,175,237.46056549996135,Go,space,0.3835585000924766,Correct,False,False
176,2.0,176,238.4598149000667,Go,space,0.382830899907276,Correct,False,False
177,2.0,177,239.45887889992449,Go,space,0.3996690001804381,Correct,False,False
178,2.0,178,240.46119039994664,Go,space,0.3463727000635117,Correct,False,False
179,2.0,179,241.4562329000328,No_go,space,0.3671399001032114,Incorrect,False,True
180,2.0,180,242.4555138000287,Go,space,0.3842378999106586,Correct,False,False
181,2.0,181,243.4547115000896,Go,space,0.4013628999236971,Correct,False,False
182,2.0,182,244.4537355999928,Go,space,0.3837129999883473,Correct,False,False
183,2.0,183,245.45262170000933,Go,space,0.3838820001110434,Correct,False,False
184,2.0,184,246.45195959997363,No_go,,0.0,Correct,False,False
185,2.0,185,247.45157700008716,No_go,,0.0,Correct,False,False
186,2.0,186,248.4510967000388,Go,space,0.3988592000678181,Correct,False,False
187,2.0,187,249.44893399998543,No_go,,0.0,Correct,False,False
188,2.0,188,250.44785819994289,Go,space,0.4664835000876337,Correct,False,False
189,2.0,189,251.4466866999865,No_go,,0.0,Correct,False,False
190,2.0,190,252.446899099974,Go,space,0.4324803999625146,Correct,False,False
191,2.0,191,253.44552529999052,Go,space,0.4664775000419467,Correct,False,False
192,2.0,192,254.4440248999745,No_go,,0.0,Correct,False,False
193,2.0,193,255.44385050004348,Go,space,0.3660635999403894,Correct,False,False
194,2.0,194,256.4423837999348,Go,space,0.5005314000882208,Correct,False,False
195,2.0,195,257.4413952000905,No_go,,0.0,Correct,False,False
196,2.0,196,258.4409153999295,No_go,,0.0,Correct,False,False
197,2.0,197,259.43942889990285,Go,space,0.4338696000631898,Correct,False,False
198,2.0,198,260.43888689996675,Go,space,0.3831627999898046,Correct,False,False
199,2.0,199,261.4378225000109,Go,space,0.3839787999168038,Correct,False,False
200,2.0,200,262.43657459993847,Go,space,0.3839096999727189,Correct,False,False
201,2.0,201,263.4429041999392,Go,space,0.3598122000694275,Correct,False,False
202,2.0,202,264.43509970000014,Go,space,0.3506295001134276,Correct,False,False
203,2.0,203,265.4339697000105,Go,space,0.3672587000764906,Correct,False,False
204,2.0,204,266.43303590011783,Go,space,0.3844144998583942,Correct,False,False
205,2.0,205,267.4323460001033,No_go,,0.0,Correct,False,False
206,2.0,206,268.44569059996866,Go,space,0.3362902000080794,Correct,False,False
207,2.0,207,269.4299868999515,Go,space,0.3838571000378579,Correct,False,False
208,2.0,208,270.4292778999079,Go,space,0.3496658999938518,Correct,False,False
209,2.0,209,271.42814510012977,Go,space,0.3835239999461919,Correct,False,False
210,2.0,210,272.4273459999822,Go,space,0.4000742000062018,Correct,False,False
211,2.0,211,273.4264992000535,Go,space,0.3906425999011844,Correct,False,False
212,2.0,212,274.42546160006896,Go,space,0.3671766999177634,Correct,False,False
213,2.0,213,275.4245337001048,Go,space,0.350548299960792,Correct,False,False
214,2.0,214,276.42387540009804,Go,space,0.4162898999638855,Correct,False,False
215,2.0,215,277.4226206999738,Go,space,0.384002499980852,Correct,False,False
216,2.0,216,278.4216195000336,Go,space,0.4184466002043336,Correct,False,False
217,2.0,217,279.4212645001244,Go,space,0.3503065998665988,Correct,False,False
218,2.0,218,280.41978070000187,Go,space,0.3173736000899225,Correct,False,False
219,2.0,219,281.41895750002004,Go,space,0.4340401000808924,Correct,False,False
220,2.0,220,282.4181248000823,Go,space,0.4007373000495136,Correct,False,False
221,2.0,221,283.42031840002164,Go,space,0.3669411998707801,Correct,False,False
222,2.0,222,284.41604729997925,Go,space,0.334442300023511,Correct,False,False
223,2.0,223,285.4162506000139,Go,space,0.366389200091362,Correct,False,False
224,2.0,224,286.4145353001077,Go,space,0.401694200001657,Correct,False,False
225,3.0,225,307.08618830004707,Go,space,0.4829270998016,Correct,False,False
226,3.0,226,308.0767351000104,No_go,,0.0,Correct,False,False
227,3.0,227,309.0763584999368,Go,space,0.3511755000799894,Correct,False,False
228,3.0,228,310.0757174999453,Go,space,0.4162341000046581,Correct,False,False
229,3.0,229,311.0748823999893,Go,space,0.4168159000109881,Correct,False,False
230,3.0,230,312.07419939991087,Go,space,0.416322800097987,Correct,False,False
231,3.0,231,313.07280239998363,Go,space,0.3994126999750733,Correct,False,False
232,3.0,232,314.0722378999926,Go,space,0.4330464999657124,Correct,False,False
233,3.0,233,315.0710801000241,Go,space,0.4833054000046104,Correct,False,False
234,3.0,234,316.0702579000499,No_go,,0.0,Correct,False,False
235,3.0,235,317.0695549999364,Go,space,0.3992208000272512,Correct,False,False
236,3.0,236,318.0692440001294,Go,space,0.4341044998727739,Correct,False,False
237,3.0,237,319.0674555001315,No_go,,0.0,Correct,False,False
238,3.0,238,320.06564879999496,Go,space,0.352314000017941,Correct,False,False
239,3.0,239,321.06519240001217,Go,space,0.3835897999815643,Correct,False,False
240,3.0,240,322.0652892999351,Go,space,0.4828174000140279,Correct,False,False
241,3.0,241,323.063854200067,Go,space,0.3991745000239461,Correct,False,False
242,3.0,242,324.06310010002926,Go,space,0.415717100026086,Correct,False,False
243,3.0,243,325.06195449992083,Go,space,0.3519167001359164,Correct,False,False
244,3.0,244,326.06150280009024,No_go,,0.0,Correct,False,False
245,3.0,245,327.0605776999146,Go,space,0.398770600091666,Correct,False,False
246,3.0,246,328.0584346000105,Go,space,0.4672457000706345,Correct,False,False
247,3.0,247,329.05795800010674,Go,space,0.4686905001290142,Correct,False,False
248,3.0,248,330.0574447000399,No_go,,0.0,Correct,False,False
249,3.0,249,331.05654140003026,Go,space,0.4001225000247359,Correct,False,False
250,3.0,250,332.0555960999336,Go,space,0.4151252000592649,Correct,False,False
251,3.0,251,333.05448479996994,Go,space,0.4499684001784771,Correct,False,False
252,3.0,252,334.05328280013055,Go,space,0.4168465998955071,Correct,False,False
253,3.0,253,335.0517697001342,Go,space,0.4005505999084562,Correct,False,False
254,3.0,254,336.05170430010185,Go,space,0.4830398999620229,Correct,False,False
255,3.0,255,337.0511106001213,Go,space,0.4659857000224292,Correct,False,False
256,3.0,256,338.0502053999808,Go,space,0.433166499948129,Correct,False,False
257,3.0,257,339.04888619994745,No_go,,0.0,Correct,False,False
258,3.0,258,340.0482447999529,Go,space,0.3671136000193655,Correct,False,False
259,3.0,259,341.0469160999637,Go,space,0.4015993999782949,Correct,False,False
260,3.0,260,342.04639600007795,Go,space,0.4003335000015795,Correct,False,False
261,3.0,261,343.0451885999646,Go,space,0.3669352000579238,Correct,False,False
262,3.0,262,344.0439695001114,Go,space,0.4001379001419991,Correct,False,False
263,3.0,263,345.04389430000447,Go,space,0.3829000999685377,Correct,False,False
264,3.0,264,346.0421279000584,Go,space,0.4009413002058863,Correct,False,False
265,3.0,265,347.04145590006374,Go,space,0.4172716001048684,Correct,False,False
266,3.0,266,348.0405339000281,Go,space,0.3334246000740677,Correct,False,False
267,3.0,267,349.0397109000478,No_go,space,0.3501281000208109,Incorrect,False,True
268,3.0,268,350.03810949996114,Go,space,0.333893199916929,Correct,False,False
269,3.0,269,351.03755449992605,Go,space,0.3673674999736249,Correct,False,False
270,3.0,270,352.03662310005166,Go,space,0.3828496001660824,Correct,False,False
271,3.0,271,353.0364508999046,No_go,,0.0,Correct,False,False
272,3.0,272,354.0347362000029,Go,space,0.3835809999145567,Correct,False,False
273,3.0,273,355.03479439998046,Go,space,0.4168620000127703,Correct,False,False
274,3.0,274,356.03309169993736,No_go,,0.0,Correct,False,False
275,3.0,275,357.0323509001173,Go,space,0.3999738998245448,Correct,False,False
276,3.0,276,358.0311104001012,No_go,,0.0,Correct,False,False
277,3.0,277,359.03041550004855,Go,space,0.3515830999240279,Correct,False,False
278,3.0,278,360.0290230000392,Go,space,0.3844955000095069,Correct,False,False
279,3.0,279,361.0281098000705,Go,space,0.499881099909544,Correct,False,False
280,3.0,280,362.0274807000533,Go,space,0.5038584999274462,Correct,False,False
281,3.0,281,363.02733479999006,Go,space,0.4661372001282871,Correct,False,False
282,3.0,282,364.0255026000086,Go,space,0.4340659000445157,Correct,False,False
283,3.0,283,365.0243170000613,Go,space,0.4673849001992494,Correct,False,False
284,3.0,284,366.0232840001117,Go,space,0.4214629000052809,Correct,False,False
285,3.0,285,367.0229863000568,No_go,,0.0,Correct,False,False
286,3.0,286,368.0220558999572,Go,space,0.3664637999609113,Correct,False,False
287,3.0,287,369.0204269001261,Go,space,0.3502680999226868,Correct,False,False
288,3.0,288,370.0194455999881,No_go,,0.0,Correct,False,False
289,3.0,289,371.0190685999114,No_go,space,0.3525042000692338,Incorrect,False,True
290,3.0,290,372.0175817999989,Go,space,0.3835855000652373,Correct,False,False
291,3.0,291,373.0166967001278,Go,space,0.300404799869284,Correct,False,False
292,3.0,292,374.0158617000561,No_go,,0.0,Correct,False,False
293,3.0,293,375.0141634000465,No_go,,0.0,Correct,False,False
294,3.0,294,376.01389629999176,Go,space,0.4168128001037985,Correct,False,False
295,3.0,295,377.0133650000207,Go,space,0.3705924998503178,Correct,False,False
296,3.0,296,378.0129029001109,No_go,,0.0,Correct,False,False
297,3.0,297,379.0114989001304,Go,space,0.3844447000883519,Correct,False,False
298,3.0,298,380.0101141000632,Go,space,0.4168662000447511,Correct,False,False
299,3.0,299,381.00908920005895,Go,space,0.3856806000694632,Correct,False,False
300,3.0,300,382.0088158000726,Go,space,0.3665644000284374,Correct,False,False
301,3.0,301,383.0083075999282,Go,space,0.3666222998872399,Correct,False,False
302,3.0,302,384.0065172999166,Go,space,0.4336747999768704,Correct,False,False
303,3.0,303,385.0103879000526,Go,space,0.3791671998333186,Correct,False,False
304,3.0,304,386.00496789999306,Go,space,0.3881811001338064,Correct,False,False
305,3.0,305,387.0036170000676,Go,space,0.3177292998880148,Correct,False,False
306,3.0,306,388.0021826999728,No_go,space,0.3197534999344498,Incorrect,False,True
307,3.0,307,389.0017385999672,Go,space,0.301554000005126,Correct,False,False
308,3.0,308,390.0016393999104,Go,space,0.4163910998031497,Correct,False,False
309,3.0,309,391.00036619999446,Go,space,0.3996091999579221,Correct,False,False
310,3.0,310,391.9991973999422,No_go,,0.0,Correct,False,False
311,3.0,311,392.9984486999456,Go,space,0.3171748998574912,Correct,False,False
312,3.0,312,393.9975395000074,Go,space,0.3671243998687714,Correct,False,False
313,3.0,313,394.9958953000605,Go,space,0.3504204999189824,Correct,False,False
314,3.0,314,395.9957620000933,Go,space,0.3666481000836938,Correct,False,False
315,4.0,315,413.5921998000704,No_go,space,0.470004899892956,Incorrect,False,True
316,4.0,316,414.5948646001052,Go,space,0.4330778999719769,Correct,False,False
317,4.0,317,415.59400600008667,Go,space,0.4000684998463839,Correct,False,False
318,4.0,318,416.59357600007206,No_go,,0.0,Correct,False,False
319,4.0,319,417.592152700061,No_go,,0.0,Correct,False,False
320,4.0,320,418.5908822999336,Go,space,0.48327980004251,Correct,False,False
321,4.0,321,419.5905812000856,No_go,,0.0,Correct,False,False
322,4.0,322,420.5891811999026,Go,space,0.4174921000376344,Correct,False,False
323,4.0,323,421.5913156000897,No_go,,0.0,Correct,False,False
324,4.0,324,422.58687600004487,Go,space,0.466939999954775,Correct,False,False
325,4.0,325,423.5862531000748,Go,space,0.4679165000561625,Correct,False,False
326,4.0,326,424.585723400116,No_go,,0.0,Correct,False,False
327,4.0,327,425.5845171001274,Go,space,0.4171825000084936,Correct,False,False
328,4.0,328,426.5839835999068,Go,space,0.5164530000183731,Correct,False,False
329,4.0,329,427.5827707999852,Go,space,0.4673920001368969,Correct,False,False
330,4.0,330,428.5806263000704,No_go,,0.0,Correct,False,False
331,4.0,331,429.58053990011103,Go,space,0.4675441000144928,Correct,False,False
332,4.0,332,430.5795527999289,Go,space,0.4341865999158472,Correct,False,False
333,4.0,333,431.57940610009246,No_go,,0.0,Correct,False,False
334,4.0,334,432.5786798999179,Go,space,0.4165175000671297,Correct,False,False
335,4.0,335,433.5769042000175,Go,space,0.4504668000154197,Correct,False,False
336,4.0,336,434.5763608000707,Go,space,0.4004120000172406,Correct,False,False
337,4.0,337,435.57512359996326,Go,space,0.3668578001670539,Correct,False,False
338,4.0,338,436.5740225999616,Go,space,0.3673223999794572,Correct,False,False
339,4.0,339,437.5731862999965,Go,space,0.4005319999996573,Correct,False,False
340,4.0,340,438.572327400092,No_go,,0.0,Correct,False,False
341,4.0,341,439.571527000051,Go,space,0.4008952998556196,Correct,False,False
342,4.0,342,440.57139050005935,No_go,,0.0,Correct,False,False
343,4.0,343,441.56961690005846,No_go,space,0.3832108001224696,Incorrect,False,True
344,4.0,344,442.568657200085,Go,space,0.4001567999366671,Correct,False,False
345,4.0,345,443.570095699979,No_go,,0.0,Correct,False,False
346,4.0,346,444.5670618999284,Go,space,0.3828894000034779,Correct,False,False
347,4.0,347,445.5663137999363,Go,space,0.4159967000596225,Correct,False,False
348,4.0,348,446.5651088999584,Go,space,0.3860146999359131,Correct,False,False
349,4.0,349,447.5640406999737,Go,space,0.416207900037989,Correct,False,False
350,4.0,350,448.5632210001349,Go,space,0.4043777000624686,Correct,False,False
351,4.0,351,449.562080899952,Go,space,0.3834955999627709,Correct,False,False
352,4.0,352,450.5602830001153,Go,space,0.4173809001222253,Correct,False,False
353,4.0,353,451.5596893001348,Go,space,0.407124999910593,Correct,False,False
354,4.0,354,452.5595080999192,No_go,space,0.3667700001969933,Incorrect,False,True
355,4.0,355,453.5587174999528,Go,space,0.4023887000512332,Correct,False,False
356,4.0,356,454.55786140006967,Go,space,0.3868011999875307,Correct,False,False
357,4.0,357,455.5567981000058,Go,space,0.3828475000336766,Correct,False,False
358,4.0,358,456.5553361000493,Go,space,0.5008830002043396,Correct,False,False
359,4.0,359,457.55506019992754,Go,space,0.4535737000405788,Correct,False,False
360,4.0,360,458.5546190999448,No_go,,0.0,Correct,False,False
361,4.0,361,459.5526179999579,Go,space,0.3839060000609606,Correct,False,False
362,4.0,362,460.5519052001182,Go,space,0.4168757998850196,Correct,False,False
363,4.0,363,461.55117559991777,Go,space,0.3335586001630872,Correct,False,False
364,4.0,364,462.5506716000382,No_go,,0.0,Correct,False,False
365,4.0,365,463.549238699954,Go,space,0.3836903998162597,Correct,False,False
366,4.0,366,464.5474227000959,Go,space,0.3848017998971045,Correct,False,False
367,4.0,367,465.5492090000771,Go,space,0.3489709000568837,Correct,False,False
368,4.0,368,466.5456960001029,Go,space,0.3515323000028729,Correct,False,False
369,4.0,369,467.5448143999092,No_go,space,0.3039786999579519,Incorrect,False,True
370,4.0,370,468.54477709997445,Go,space,0.3500686001498252,Correct,False,False
371,4.0,371,469.54379469994456,Go,space,0.3835317001212388,Correct,False,False
372,4.0,372,470.54261550004594,Go,space,0.4177414998412132,Correct,False,False
373,4.0,373,471.5421808999963,Go,space,0.4179845000617206,Correct,False,False
374,4.0,374,472.5400678999722,Go,space,0.4010739000514149,Correct,False,False
375,4.0,375,473.5390332001261,Go,space,0.4355071000754833,Correct,False,False
376,4.0,376,474.53951080003753,Go,space,0.4483477000612765,Correct,False,False
377,4.0,377,475.53740500006825,Go,space,0.3173031001351774,Correct,False,False
378,4.0,378,476.5384798999876,No_go,,0.0,Correct,False,False
379,4.0,379,477.5364471999928,Go,space,0.2660185999702662,Correct,False,False
380,4.0,380,478.53501709993,Go,space,0.3175200000405311,Correct,False,False
381,4.0,381,479.5351559999399,Go,space,0.3337379000149667,Correct,False,False
382,4.0,382,480.5330404001288,No_go,space,0.3508036998100579,Incorrect,False,True
383,4.0,383,481.5321035999805,Go,space,0.2679191997740417,Correct,False,False
384,4.0,384,482.5312550000381,Go,space,0.3842314002104103,Correct,False,False
385,4.0,385,483.5304099000059,Go,space,0.2337205000221729,Correct,False,False
386,4.0,386,484.52928119990975,Go,space,0.4002103998791426,Correct,False,False
387,4.0,387,485.5282511000987,Go,space,0.3834557998925447,Correct,False,False
388,4.0,388,486.5281046999153,Go,space,0.2488696000073105,Correct,False,False
389,4.0,389,487.5263944000472,Go,space,0.317591099999845,Correct,False,False
390,4.0,390,488.52642589993775,Go,space,0.3323334001470357,Correct,False,False
391,4.0,391,489.524682899937,Go,space,0.3837773001287132,Correct,False,False
392,4.0,392,490.52466859994456,Go,space,0.4157564998604357,Correct,False,False
393,4.0,393,491.5229448000901,Go,space,0.3176824999973178,Correct,False,False
394,4.0,394,492.52175770001486,Go,space,0.3338599000126123,Correct,False,False
395,4.0,395,493.52054770011455,Go,space,0.4362023998983204,Correct,False,False
396,4.0,396,494.51984290010296,Go,space,0.3009645000565797,Correct,False,False
397,4.0,397,495.5193541999906,Go,space,0.383367900038138,Correct,False,False
398,4.0,398,496.5184190000873,Go,space,0.3693037000484764,Correct,False,False
399,4.0,399,497.5177168999799,Go,space,0.383248200174421,Correct,False,False
400,4.0,400,498.5168566000648,Go,space,0.3017436999361962,Correct,False,False
401,4.0,401,499.51623810012825,Go,space,0.3671605999115854,Correct,False,False
402,4.0,402,500.51512319990434,Go,space,0.332818099996075,Correct,False,False
403,4.0,403,501.5136528001167,Go,space,0.3501170999370515,Correct,False,False
404,4.0,404,502.5131294999737,Go,space,0.3162710999604314,Correct,False,False
405,5.0,405,522.1016844001133,Go,space,0.4421165999956429,Correct,False,False
406,5.0,406,523.0922042001039,Go,space,0.3508586999960243,Correct,False,False
407,5.0,407,524.0927301000338,No_go,space,0.3169629999902099,Incorrect,False,True
408,5.0,408,525.0924452999607,Go,space,0.2517591000068933,Correct,False,False
409,5.0,409,526.091259600129,Go,space,0.3518236000090837,Correct,False,False
410,5.0,410,527.089510000078,Go,space,0.3670661998912692,Correct,False,False
411,5.0,411,528.0883538001217,Go,space,0.3187724000308662,Correct,False,False
412,5.0,412,529.0875021000393,Go,space,0.3502265000715852,Correct,False,False
413,5.0,413,530.0869418000802,Go,space,0.3166962000541389,Correct,False,False
414,5.0,414,531.0860566999763,No_go,,0.0,Correct,False,False
415,5.0,415,532.0845743000973,Go,space,0.3511248999275267,Correct,False,False
416,5.0,416,533.0841467999853,Go,space,0.3522683999035507,Correct,False,False
417,5.0,417,534.0832398999482,Go,space,0.3994966000318527,Correct,False,False
418,5.0,418,535.0826048001181,Go,space,0.3327206000685692,Correct,False,False
419,5.0,419,536.0809742999263,Go,space,0.3338536999654025,Correct,False,False
420,5.0,420,537.0800964999944,Go,space,0.3335527998860925,Correct,False,False
421,5.0,421,538.0798762000632,No_go,space,0.3359556999057531,Incorrect,False,True
422,5.0,422,539.0784406999592,Go,space,0.250278300140053,Correct,False,False
423,5.0,423,540.0776007999666,Go,space,0.3002146000508219,Correct,False,False
424,5.0,424,541.0769962000195,Go,space,0.2499281000345945,Correct,False,False
425,5.0,425,542.0790452000219,Go,space,0.263907500077039,Correct,False,False
426,5.0,426,543.0748133000452,No_go,space,0.3196439000312239,Incorrect,False,True
427,5.0,427,544.073496799916,Go,space,0.2499577000271529,Correct,False,False
428,5.0,428,545.0717343001161,Go,space,0.3677064999938011,Correct,False,False
429,5.0,429,546.0724832999986,Go,space,0.3003078999463469,Correct,False,False
430,5.0,430,547.0711731999181,No_go,,0.0,Correct,False,False
431,5.0,431,548.0701278999913,Go,space,0.3529938000719994,Correct,False,False
432,5.0,432,549.0690107999835,Go,space,0.4009716999717057,Correct,False,False
433,5.0,433,550.0686596999876,No_go,,0.0,Correct,False,False
434,5.0,434,551.0674046000931,Go,space,0.3163131000474095,Correct,False,False
435,5.0,435,552.0667087000329,Go,space,0.3167227001395076,Correct,False,False
436,5.0,436,553.0654945001006,Go,space,0.3545959000475704,Correct,False,False
437,5.0,437,554.0639979001135,Go,space,0.3010464000981301,Correct,False,False
438,5.0,438,555.0633491000626,Go,space,0.2345553999766707,Correct,False,False
439,5.0,439,556.0630914000794,Go,space,0.4000063999556005,Correct,False,False
440,5.0,440,557.0620059000794,No_go,,0.0,Correct,False,False
441,5.0,441,558.0608979999088,Go,space,0.3342546999920159,Correct,False,False
442,5.0,442,559.0608701000456,Go,space,0.3994177998974919,Correct,False,False
443,5.0,443,560.0578377000056,No_go,space,0.3182641000021249,Incorrect,False,True
444,5.0,444,561.0586945000105,Go,space,0.3662048000842333,Correct,False,False
445,5.0,445,562.0571964001283,Go,space,0.3336518998257816,Correct,False,False
446,5.0,446,563.0555986999534,Go,,0.0,Incorrect,True,False
447,5.0,447,564.0547748000827,Go,space,0.3674662001430988,Correct,False,False
448,5.0,448,565.0538079000544,Go,space,0.3573491999413818,Correct,False,False
449,5.0,449,566.0533535000868,No_go,space,0.3507405000273138,Incorrect,False,True
450,5.0,450,567.0522392001003,Go,space,0.2673486999701708,Correct,False,False
451,5.0,451,568.0517639999744,No_go,,0.0,Correct,False,False
452,5.0,452,569.0504540000111,Go,space,0.4832490999251604,Correct,False,False
453,5.0,453,570.0499728999566,Go,space,0.4698846000246703,Correct,False,False
454,5.0,454,571.0490190999117,Go,space,0.4334635001141578,Correct,False,False
455,5.0,455,572.0507976999506,Go,space,0.5983127001672983,Correct,False,False
456,5.0,456,573.046860900009,Go,space,0.4337293999269604,Correct,False,False
457,5.0,457,574.0460318000987,No_go,,0.0,Correct,False,False
458,5.0,458,575.0450959000736,No_go,space,0.3502780999988317,Incorrect,False,True
459,5.0,459,576.0447752999607,Go,space,0.3988620999734849,Correct,False,False
460,5.0,460,577.0441702001262,Go,space,0.4332808000035584,Correct,False,False
461,5.0,461,578.0426773000509,Go,space,0.3694307000841945,Correct,False,False
462,5.0,462,579.0409053999465,Go,space,0.417375799966976,Correct,False,False
463,5.0,463,580.0404817000963,Go,space,0.3994347001425922,Correct,False,False
464,5.0,464,581.0393197000958,Go,space,0.3830484000500291,Correct,False,False
465,5.0,465,582.0390902999789,Go,space,0.3330988001544028,Correct,False,False
466,5.0,466,583.0377537000459,Go,space,0.3001957999076694,Correct,False,False
467,5.0,467,584.036425499944,No_go,,0.0,Correct,False,False
468,5.0,468,585.0363215999678,Go,space,0.3662347001954913,Correct,False,False
469,5.0,469,586.0349892999511,No_go,,0.0,Correct,False,False
470,5.0,470,587.0339764999226,Go,space,0.4501946000382304,Correct,False,False
471,5.0,471,588.0325869000517,Go,space,0.4838865001220256,Correct,False,False
472,5.0,472,589.0317394000012,Go,space,0.3026089000049978,Correct,False,False
473,5.0,473,590.0312858999241,Go,space,0.3499082000926137,Correct,False,False
474,5.0,474,591.0302514000796,No_go,,0.0,Correct,False,False
475,5.0,475,592.0289467999246,Go,space,0.3501023000571877,Correct,False,False
476,5.0,476,593.0288048000075,Go,space,0.3542423998005688,Correct,False,False
477,5.0,477,594.0272842000704,Go,space,0.4167525998782366,Correct,False,False
478,5.0,478,595.0279177001212,Go,space,0.3812981001101434,Correct,False,False
479,5.0,479,596.0255827000365,Go,space,0.3832152001559734,Correct,False,False
480,5.0,480,597.0245089000091,Go,space,0.334059199783951,Correct,False,False
481,5.0,481,598.0237223000731,Go,space,0.3332403998356312,Correct,False,False
482,5.0,482,599.0546558001079,Go,space,0.2850119001232087,Correct,False,False
483,5.0,483,600.054233700037,No_go,,0.0,Correct,False,False
484,5.0,484,601.0531830000691,No_go,space,0.3036105998326093,Incorrect,False,True
485,5.0,485,602.0537459000479,Go,space,0.3823390000034123,Correct,False,False
486,5.0,486,603.0527939000167,Go,space,0.3859004999976605,Correct,False,False
487,5.0,487,604.0509065000806,Go,space,0.3511266000568867,Correct,False,False
488,5.0,488,605.0495064000133,Go,space,0.3674890000838786,Correct,False,False
489,5.0,489,606.0492877999786,Go,space,0.3674771001096815,Correct,False,False
490,5.0,490,607.0482866000384,No_go,,0.0,Correct,False,False
491,5.0,491,608.0470996000804,Go,space,0.250250699929893,Correct,False,False
492,5.0,492,609.0460004000925,Go,space,0.3507334999740124,Correct,False,False
493,5.0,493,610.0459551000968,Go,space,0.367236299905926,Correct,False,False
494,5.0,494,611.044525400037,Go,space,0.3502154999878257,Correct,False,False
495,6.0,495,623.4641086999327,Go,space,0.468709000153467,Correct,False,False
496,6.0,496,624.4662955000531,No_go,,0.0,Correct,False,False
497,6.0,497,625.4640798999462,Go,space,0.3836833001114428,Correct,False,False
498,6.0,498,626.4633220999967,No_go,,0.0,Correct,False,False
499,6.0,499,627.4628954001237,Go,space,0.3839926000218838,Correct,False,False
500,6.0,500,628.4622681001201,Go,space,0.4656979001592845,Correct,False,False
501,6.0,501,629.4605334000662,Go,space,0.433382400078699,Correct,False,False
502,6.0,502,630.4597583001014,Go,space,0.3658181999344378,Correct,False,False
503,6.0,503,631.4599679000676,No_go,space,0.3347426000982523,Incorrect,False,True
504,6.0,504,632.4572986001149,Go,space,0.284149199957028,Correct,False,False
505,6.0,505,633.4568030999508,Go,space,0.3838479998521507,Correct,False,False
506,6.0,506,634.4556513999123,Go,space,0.38413120014593,Correct,False,False
507,6.0,507,635.4555252001155,Go,space,0.3498456999659538,Correct,False,False
508,6.0,508,636.4541619000956,Go,space,0.301645299885422,Correct,False,False
509,6.0,509,637.4532900999766,Go,space,0.3505712000187486,Correct,False,False
510,6.0,510,638.4524588000495,No_go,space,0.3836408001370728,Incorrect,False,True
511,6.0,511,639.455633000005,Go,space,0.3293182000052184,Correct,False,False
512,6.0,512,640.4507621000521,Go,space,0.3504381000529974,Correct,False,False
513,6.0,513,641.4500474000815,Go,space,0.3832884998992085,Correct,False,False
514,6.0,514,642.4493873000611,Go,space,0.6326976001728326,Correct,False,False
515,6.0,515,643.4472712001298,Go,space,0.4010280999355018,Correct,False,False
516,6.0,516,644.4479656999465,Go,space,0.4156905999407172,Correct,False,False
517,6.0,517,645.4453845000826,Go,space,0.367759499931708,Correct,False,False
518,6.0,518,646.4447085999418,Go,space,0.4169626000802964,Correct,False,False
519,6.0,519,647.4439910999499,Go,space,0.3337401999160647,Correct,False,False
520,6.0,520,648.4428340999875,No_go,,0.0,Correct,False,False
521,6.0,521,649.4415148999542,Go,space,0.3362878998741507,Correct,False,False
522,6.0,522,650.4409592999145,Go,space,0.3505840001162141,Correct,False,False
523,6.0,523,651.4400414999109,Go,space,0.3760240001138299,Correct,False,False
524,6.0,524,652.43897249992,Go,space,0.4067909999284893,Correct,False,False
525,6.0,525,653.4377969999332,No_go,,0.0,Correct,False,False
526,6.0,526,654.4381721999962,Go,space,0.3506815999280661,Correct,False,False
527,6.0,527,655.4359391001053,Go,space,0.4176129000261426,Correct,False,False
528,6.0,528,656.4351671000477,No_go,space,0.3676620998885482,Incorrect,False,True
529,6.0,529,657.4353670000564,Go,space,0.2161097000353038,Correct,False,False
530,6.0,530,658.4334019001108,Go,space,0.3513133998494595,Correct,False,False
531,6.0,531,659.4323307999875,No_go,,0.0,Correct,False,False
532,6.0,532,660.4323269999586,Go,space,0.3539454999845475,Correct,False,False
533,6.0,533,661.430748200044,Go,space,0.4166553001850843,Correct,False,False
534,6.0,534,662.4294277001172,Go,space,0.3343428999651223,Correct,False,False
535,6.0,535,663.4289907000493,Go,space,0.3671621000394225,Correct,False,False
536,6.0,536,664.4274878001306,Go,space,0.4193259999155998,Correct,False,False
537,6.0,537,665.4265390001237,Go,space,0.4346014999318868,Correct,False,False
538,6.0,538,666.4264682999346,Go,space,0.5668732998892665,Correct,False,False
539,6.0,539,667.424805500079,Go,space,0.3341254000551998,Correct,False,False
540,6.0,540,668.4242350999266,Go,space,0.3671845998615026,Correct,False,False
541,6.0,541,669.4224686000962,No_go,space,0.3502267000731081,Incorrect,False,True
542,6.0,542,670.4219766000751,Go,space,0.3167728998232633,Correct,False,False
543,6.0,543,671.4215341000818,Go,space,0.3160723999608308,Correct,False,False
544,6.0,544,672.4204998000059,Go,space,0.3838119001593441,Correct,False,False
545,6.0,545,673.4193587999325,Go,space,0.4340286001097411,Correct,False,False
546,6.0,546,674.4181496000383,Go,space,0.4341472999658435,Correct,False,False
547,6.0,547,675.418070100015,Go,space,0.4660499999299645,Correct,False,False
548,6.0,548,676.4164509000257,Go,space,0.4338579000905156,Correct,False,False
549,6.0,549,677.4154531999957,No_go,,0.0,Correct,False,False
550,6.0,550,678.4145325999707,Go,space,0.3684326999355107,Correct,False,False
551,6.0,551,679.4147350001149,Go,space,0.3652174000162631,Correct,False,False
552,6.0,552,680.4140653999057,No_go,,0.0,Correct,False,False
553,6.0,553,681.4125844999216,Go,space,0.3827317000832408,Correct,False,False
554,6.0,554,682.4112726999447,Go,space,0.566499600186944,Correct,False,False
555,6.0,555,683.4104037999641,Go,space,0.3714305001776665,Correct,False,False
556,6.0,556,684.4088501001243,Go,space,0.3674331000074744,Correct,False,False
557,6.0,557,685.4081880000886,Go,space,0.3338055000640452,Correct,False,False
558,6.0,558,686.4074683000799,No_go,,0.0,Correct,False,False
559,6.0,559,687.4061716001015,Go,space,0.3888296000659466,Correct,False,False
560,6.0,560,688.4052307000384,Go,space,0.4404469998553395,Correct,False,False
561,6.0,561,689.4044437000994,Go,space,0.4503500999417156,Correct,False,False
562,6.0,562,690.4035887999926,Go,space,0.4167659000959247,Correct,False,False
563,6.0,563,691.4028845999856,Go,space,0.433283600024879,Correct,False,False
564,6.0,564,692.4015754999127,Go,space,0.367159399902448,Correct,False,False
565,6.0,565,693.4008289999329,Go,space,0.4008627000730485,Correct,False,False
566,6.0,566,694.4001861000434,Go,space,0.3843334000557661,Correct,False,False
567,6.0,567,695.3993003999349,Go,space,0.3846501999069005,Correct,False,False
568,6.0,568,696.3979364000261,Go,space,0.41654759994708,Correct,False,False
569,6.0,569,697.3974550000858,Go,space,0.3530216000508517,Correct,False,False
570,6.0,570,698.3966705999337,Go,space,0.3660444000270217,Correct,False,False
571,6.0,571,699.3952915000264,No_go,,0.0,Correct,False,False
572,6.0,572,700.3943276000209,Go,space,0.4336359999142587,Correct,False,False
573,6.0,573,701.3936646999791,No_go,,0.0,Correct,False,False
574,6.0,574,702.3929926999845,Go,space,0.416777899954468,Correct,False,False
575,6.0,575,703.3916041001212,Go,space,0.5002304001245648,Correct,False,False
576,6.0,576,704.3910779999569,No_go,,0.0,Correct,False,False
577,6.0,577,705.3903381000273,Go,space,0.3495332000311464,Correct,False,False
578,6.0,578,706.3908281000331,Go,space,0.3983827999327332,Correct,False,False
579,6.0,579,707.3876294000074,No_go,,0.0,Correct,False,False
580,6.0,580,708.3865883001126,Go,space,0.4005734999664128,Correct,False,False
581,6.0,581,709.3871003000531,Go,space,0.3989681999664753,Correct,False,False
582,6.0,582,710.3851423999295,No_go,,0.0,Correct,False,False
583,6.0,583,711.3843960999511,Go,space,0.3672198001295328,Correct,False,False
584,6.0,584,712.3833173001185,No_go,,0.0,Correct,False,False
