,block_index,trial,trial_onset(s),stimulus_type,resp_key,rt(s),correct,is_omission,is_comission
0,,0,49.61436419999518,No_go,,0.0,Correct,False,False
1,,1,51.597855300002266,Go,space,0.6741731999936746,Correct,False,False
2,,2,52.57111069999519,No_go,,0.0,Correct,False,False
3,,3,54.55827490000229,Go,space,0.3940737999946577,Correct,False,False
4,,4,55.53493360000721,No_go,,0.0,Correct,False,False
5,,5,57.52293429999554,Go,space,0.6267539000109537,Correct,False,False
6,,6,58.499355599997216,Go,space,0.7485706000006758,Correct,False,False
7,,7,59.481734300003154,Go,space,0.7997049999976298,Correct,False,False
8,,8,60.46391459999722,No_go,,0.0,Correct,False,False
9,,9,62.45273119999911,Go,space,0.5754881000029854,Correct,False,False
10,,10,63.42819489999965,Go,space,0.682468400002108,Correct,False,False
11,,11,64.40914469999552,No_go,,0.0,Correct,False,False
12,,12,66.39950300000783,Go,space,0.5569928999902913,Correct,False,False
13,,13,67.37388870000723,Go,space,0.8193729000049643,Correct,False,False
14,,14,68.3567589000013,Go,,0.0,Incorrect,True,False
15,,15,70.34673400000611,Go,space,0.5243494000023929,Correct,False,False
16,,16,71.32014870000421,Go,space,0.4166364999982761,Correct,False,False
17,,17,72.30289429999539,Go,space,0.4662524000013945,Correct,False,False
18,,18,73.28494749999663,Go,space,0.4337841999949887,Correct,False,False
19,,19,74.26701660000253,Go,space,0.4016611999977613,Correct,False,False
20,,20,75.24941620000754,Go,space,0.4345971000002464,Correct,False,False
21,,21,76.23242010000104,Go,space,0.5685997999971732,Correct,False,False
22,,22,77.21399570000358,Go,space,0.4842935999913607,Correct,False,False
23,,23,78.19572079999489,Go,space,0.4186208000028273,Correct,False,False
24,,24,79.17981899999722,Go,space,0.4170322000136366,Correct,False,False
25,,25,80.16200300000492,Go,space,0.766643800001475,Correct,False,False
26,,26,81.14442559999588,No_go,space,0.4504099999903701,Incorrect,False,True
27,,27,82.12626970000565,Go,space,0.533645899995463,Correct,False,False
28,,28,83.10970519999682,No_go,,0.0,Correct,False,False
29,,29,85.10016539999924,Go,space,0.3745495999901322,Correct,False,False
30,,30,86.07267449999927,Go,space,0.399983199997223,Correct,False,False
31,,31,87.0560994999978,No_go,space,0.349708499998087,Incorrect,False,True
32,,32,88.03758190000372,Go,space,0.4519194000022253,Correct,False,False
33,,33,89.01892940000107,Go,space,0.517004099994665,Correct,False,False
34,,34,90.00306289999571,Go,space,0.4509049000043887,Correct,False,False
35,,35,90.98522030000458,Go,space,0.4335504000046057,Correct,False,False
36,,36,91.96797280000465,Go,space,0.4172513999947114,Correct,False,False
37,,37,92.94943170000624,Go,space,0.4671085000009043,Correct,False,False
38,,38,93.93278370000188,Go,space,0.3669158999982755,Correct,False,False
39,,39,94.91582939999353,Go,space,0.415597200000775,Correct,False,False
40,,40,95.89776550000532,Go,space,0.4502909000002546,Correct,False,False
41,,41,96.87967260000003,No_go,,0.0,Correct,False,False
42,,42,98.86896619999608,Go,space,0.3757562999962829,Correct,False,False
43,,43,99.84407979999378,Go,space,0.4643885999976191,Correct,False,False
44,,44,100.82597669999814,Go,space,0.533325700002024,Correct,False,False
45,1.0,45,109.31220879999456,No_go,,0.0,Correct,False,False
46,1.0,46,110.26733519999834,Go,space,0.4662693999998737,Correct,False,False
47,1.0,47,111.2316462000017,Go,space,0.3666698000015458,Correct,False,False
48,1.0,48,112.19907329999842,Go,space,0.3830138000048464,Correct,False,False
49,1.0,49,113.16379449999658,Go,space,0.3838800999947125,Correct,False,False
50,1.0,50,114.130015799994,Go,space,0.4004642999934731,Correct,False,False
51,1.0,51,115.09612800000468,Go,space,0.4334119000122882,Correct,False,False
52,1.0,52,116.06217819999438,Go,space,0.4007082999887643,Correct,False,False
53,1.0,53,117.02638340000703,Go,space,0.3850150000071153,Correct,False,False
54,1.0,54,117.9935148999939,Go,space,0.3665172999899369,Correct,False,False
55,1.0,55,118.95856709999498,Go,space,0.3334944999951403,Correct,False,False
56,1.0,56,119.9250835999992,Go,space,0.3663881000102265,Correct,False,False
57,1.0,57,120.89064840000356,Go,space,0.3332669000083115,Correct,False,False
58,1.0,58,121.8557856999978,Go,space,0.3672602000006009,Correct,False,False
59,1.0,59,122.8210134999972,Go,space,0.3677604000113206,Correct,False,False
60,1.0,60,123.78756050000084,Go,space,0.3678581999993184,Correct,False,False
61,1.0,61,124.75398680000217,Go,space,0.4176005000044824,Correct,False,False
62,1.0,62,125.72066180000547,No_go,space,0.3838945999887073,Incorrect,False,True
63,1.0,63,126.6859073999949,Go,space,0.4003732999990461,Correct,False,False
64,1.0,64,127.65092070000536,Go,space,0.3837327999935951,Correct,False,False
65,1.0,65,128.61670800000138,Go,space,0.5512605000112671,Correct,False,False
66,1.0,66,129.5817709999974,Go,space,0.41832080000313,Correct,False,False
67,1.0,67,130.5487148999964,Go,space,0.433402800001204,Correct,False,False
68,1.0,68,131.5138098000025,No_go,space,0.3672651999950176,Incorrect,False,True
69,1.0,69,132.48008059999847,No_go,space,0.3689433999970788,Incorrect,False,True
70,1.0,70,133.44550309999613,Go,space,0.3990724999894155,Correct,False,False
71,1.0,71,134.41143259999808,Go,space,0.3991983000014443,Correct,False,False
72,1.0,72,135.37668060000578,Go,space,0.3676113999972585,Correct,False,False
73,1.0,73,136.3423391999968,No_go,space,0.3512927999981912,Incorrect,False,True
74,1.0,74,137.30878750000556,No_go,,0.0,Correct,False,False
75,1.0,75,138.27384470000106,Go,space,0.3511307000007946,Correct,False,False
76,1.0,76,139.24008139999933,No_go,,0.0,Correct,False,False
77,1.0,77,140.205927300005,Go,space,0.3667177000024821,Correct,False,False
78,1.0,78,141.1719895999995,Go,space,0.3503950000012992,Correct,False,False
79,1.0,79,142.1374882999953,Go,space,0.351805999991484,Correct,False,False
80,1.0,80,143.1026316000061,Go,space,0.4334869000012986,Correct,False,False
81,1.0,81,144.06960600000457,No_go,,0.0,Correct,False,False
82,1.0,82,145.03324649999558,Go,space,0.3688053000078071,Correct,False,False
83,1.0,83,146.00041870000132,Go,space,0.3832502000004751,Correct,False,False
84,1.0,84,146.9662118999986,Go,space,0.3837438999908045,Correct,False,False
85,1.0,85,147.93188600000576,Go,space,0.4340968000033172,Correct,False,False
86,1.0,86,148.89850910000678,Go,space,0.4154623999929754,Correct,False,False
87,1.0,87,149.86371600000712,Go,space,0.4334061999979894,Correct,False,False
88,1.0,88,150.82866630000353,Go,space,0.4167967999965185,Correct,False,False
89,1.0,89,151.79553990000568,Go,space,0.3662078000052133,Correct,False,False
90,1.0,90,152.76051779999398,No_go,space,0.383894099999452,Incorrect,False,True
91,1.0,91,153.726236100003,Go,space,0.3690926999988733,Correct,False,False
92,1.0,92,154.69255530000373,No_go,space,0.4168716999993194,Incorrect,False,True
93,1.0,93,155.6569856999995,Go,space,0.4329499000014039,Correct,False,False
94,1.0,94,156.62307699999656,Go,space,0.4013304999971296,Correct,False,False
95,1.0,95,157.58936709999398,Go,space,0.3839165000099456,Correct,False,False
96,1.0,96,158.5548945000046,Go,space,0.4510275999928126,Correct,False,False
97,1.0,97,159.5211377999949,No_go,space,0.4003013000037754,Incorrect,False,True
98,1.0,98,160.48660659999587,Go,space,0.3669946000009076,Correct,False,False
99,1.0,99,161.45254959999875,Go,space,0.4180624000000534,Correct,False,False
100,1.0,100,162.4189120999945,Go,space,0.4333056999894324,Correct,False,False
101,1.0,101,163.38378869999724,Go,space,0.4174446999968495,Correct,False,False
102,1.0,102,164.34971009999572,No_go,space,0.3668909999978496,Incorrect,False,True
103,1.0,103,165.31583269999828,Go,space,0.3685070000065025,Correct,False,False
104,1.0,104,166.28136229999654,Go,space,0.4666915999987395,Correct,False,False
105,1.0,105,167.24657360000128,Go,space,0.5502927000052296,Correct,False,False
106,1.0,106,168.21366029999626,Go,space,0.3663664999912726,Correct,False,False
107,1.0,107,169.17871490000107,Go,space,0.4166901999997208,Correct,False,False
108,1.0,108,170.1447715999966,No_go,space,0.3838576999987708,Incorrect,False,True
109,1.0,109,171.1108755000023,Go,space,0.3833733999927062,Correct,False,False
110,1.0,110,172.0760811999935,Go,space,0.4019133999972837,Correct,False,False
111,1.0,111,173.04133120000188,Go,space,0.4502607000031275,Correct,False,False
112,1.0,112,174.00792720000027,Go,space,0.5328563000075519,Correct,False,False
113,1.0,113,174.97405119999894,Go,space,0.8166590999899199,Correct,False,False
114,1.0,114,175.9387435999961,No_go,space,0.4339761000010185,Incorrect,False,True
115,1.0,115,176.90486229999806,Go,space,0.2848018999939086,Correct,False,False
116,1.0,116,177.8706855000055,Go,space,0.3995897999993758,Correct,False,False
117,1.0,117,178.83645790000446,Go,space,0.4176418999995803,Correct,False,False
118,1.0,118,179.80178870000236,No_go,,0.0,Correct,False,False
119,1.0,119,180.7682135000068,Go,space,0.3836926000076346,Correct,False,False
120,1.0,120,181.73362719999568,Go,space,0.3997843999968609,Correct,False,False
121,1.0,121,182.7002744000056,Go,space,0.3663716000010026,Correct,False,False
122,1.0,122,183.6657277000049,No_go,,0.0,Correct,False,False
123,1.0,123,184.6309428999957,Go,space,0.4002813999977661,Correct,False,False
124,1.0,124,185.59680559999836,Go,space,0.3834153000061633,Correct,False,False
125,1.0,125,186.56220349999785,Go,space,0.4175938999978825,Correct,False,False
126,1.0,126,187.52945929999987,Go,space,0.4503044999873964,Correct,False,False
127,1.0,127,188.49351159999787,No_go,space,0.3854334000061499,Incorrect,False,True
128,1.0,128,189.4592976999993,Go,space,0.350705700009712,Correct,False,False
129,1.0,129,190.42588209999667,Go,space,0.4168923999968683,Correct,False,False
130,1.0,130,191.3910084999952,Go,space,0.4501251000037882,Correct,False,False
131,1.0,131,192.3575889000058,Go,space,0.4838100999913877,Correct,False,False
132,1.0,132,193.32334780000383,Go,space,0.5341391999972984,Correct,False,False
133,1.0,133,194.2887163999985,No_go,,0.0,Correct,False,False
134,1.0,134,195.25415009999412,Go,space,0.3859933000057935,Correct,False,False
135,2.0,135,210.36088360000576,Go,space,0.5285255999915535,Correct,False,False
136,2.0,136,211.32141330000013,No_go,space,0.4500473999942187,Incorrect,False,True
137,2.0,137,212.28893799999787,Go,space,0.4003464999987045,Correct,False,False
138,2.0,138,213.2538738000003,Go,space,0.4341213000006974,Correct,False,False
139,2.0,139,214.2197479000024,Go,space,0.4337681999895721,Correct,False,False
140,2.0,140,215.1864863999945,No_go,,0.0,Correct,False,False
141,2.0,141,216.1516599000024,Go,space,0.4013025000022026,Correct,False,False
142,2.0,142,217.117499400003,Go,space,0.3827246000000741,Correct,False,False
143,2.0,143,218.0829606000043,Go,space,0.3843041000072844,Correct,False,False
144,2.0,144,219.0486336000031,Go,space,0.4671494000067469,Correct,False,False
145,2.0,145,220.01466580000124,Go,space,0.4171950000018114,Correct,False,False
146,2.0,146,220.98063079999704,Go,space,0.4342145000118762,Correct,False,False
147,2.0,147,221.94484500000544,Go,space,0.3836846999911358,Correct,False,False
148,2.0,148,222.91243330000725,No_go,space,0.3999646000011125,Incorrect,False,True
149,2.0,149,223.8777454999945,Go,space,0.3512901999929454,Correct,False,False
150,2.0,150,224.84338079999725,Go,space,0.4337460999959148,Correct,False,False
151,2.0,151,225.80867919999585,Go,space,0.4172085000027437,Correct,False,False
152,2.0,152,226.77448500000173,Go,space,0.5018380999972578,Correct,False,False
153,2.0,153,227.7405037999997,No_go,space,0.3696469999995315,Incorrect,False,True
154,2.0,154,228.7064398000075,Go,space,0.3844153999962145,Correct,False,False
155,2.0,155,229.6723018000048,No_go,,0.0,Correct,False,False
156,2.0,156,230.6388568999973,Go,space,0.3659096000046702,Correct,False,False
157,2.0,157,231.60378499999933,Go,space,0.4012095000070985,Correct,False,False
158,2.0,158,232.56951679999477,Go,space,0.4005170000018552,Correct,False,False
159,2.0,159,233.5342018999945,Go,space,0.3831268999929307,Correct,False,False
160,2.0,160,234.50100530000051,Go,space,0.6510962000029394,Correct,False,False
161,2.0,161,235.4669913999969,Go,space,0.3830756999959703,Correct,False,False
162,2.0,162,236.4325167000061,No_go,space,0.3167775000038091,Incorrect,False,True
163,2.0,163,237.39815459999957,Go,space,0.4169705000094836,Correct,False,False
164,2.0,164,238.3639497999975,Go,space,0.3662254999944707,Correct,False,False
165,2.0,165,239.3291323000012,Go,space,0.3524032999994233,Correct,False,False
166,2.0,166,240.29510930000103,Go,space,0.3533048999961465,Correct,False,False
167,2.0,167,241.26154599999427,Go,space,0.3505822000006446,Correct,False,False
168,2.0,168,242.22717650000413,Go,space,0.3336369000026025,Correct,False,False
169,2.0,169,243.19264910000493,Go,space,0.3521819000015966,Correct,False,False
170,2.0,170,244.15773120000085,Go,space,0.3677712000062456,Correct,False,False
171,2.0,171,245.12371210000128,Go,space,0.3672500999964541,Correct,False,False
172,2.0,172,246.0897261000064,Go,space,0.3682984999904874,Correct,False,False
173,2.0,173,247.05623030000424,No_go,space,0.3673493999958737,Incorrect,False,True
174,2.0,174,248.02172150000115,Go,space,0.3166189999901689,Correct,False,False
175,2.0,175,248.9877295000042,Go,space,0.4166512999945553,Correct,False,False
176,2.0,176,249.9523707000044,Go,space,0.3186333999910857,Correct,False,False
177,2.0,177,250.9193751999992,Go,space,0.3833459000015864,Correct,False,False
178,2.0,178,251.88502919999885,No_go,,0.0,Correct,False,False
179,2.0,179,252.85087029999704,Go,space,0.3663497999950778,Correct,False,False
180,2.0,180,253.81612990000576,Go,space,0.3843954000039957,Correct,False,False
181,2.0,181,254.7826359000028,Go,space,0.5315379999956349,Correct,False,False
182,2.0,182,255.74654839999857,Go,space,0.3330908999923849,Correct,False,False
183,2.0,183,256.7136268000031,Go,space,0.2840753000054974,Correct,False,False
184,2.0,184,257.6798341999965,No_go,space,0.3494677000126103,Incorrect,False,True
185,2.0,185,258.6452750000026,Go,space,0.3339097999996738,Correct,False,False
186,2.0,186,259.61118449999776,Go,space,0.383007099997485,Correct,False,False
187,2.0,187,260.5768465000001,No_go,space,0.3335750999976881,Incorrect,False,True
188,2.0,188,261.5426038000005,Go,space,0.2850286999891978,Correct,False,False
189,2.0,189,262.508848700003,Go,space,0.3518914000014774,Correct,False,False
190,2.0,190,263.47395090000646,Go,space,0.3673782999976538,Correct,False,False
191,2.0,191,264.440110800002,Go,space,0.3667100000020582,Correct,False,False
192,2.0,192,265.40495880000526,Go,space,0.3848457999993115,Correct,False,False
193,2.0,193,266.37010230000305,Go,space,0.4190881999966223,Correct,False,False
194,2.0,194,267.33618650000426,Go,space,0.3524042000062763,Correct,False,False
195,2.0,195,268.3032941999991,Go,space,0.4005409999954281,Correct,False,False
196,2.0,196,269.268734199999,Go,space,0.3336517999996431,Correct,False,False
197,2.0,197,270.23444179999933,Go,space,0.3341803999937838,Correct,False,False
198,2.0,198,271.2011211000063,Go,space,0.3656939000065904,Correct,False,False
199,2.0,199,272.1657792000042,Go,space,0.4501597999915248,Correct,False,False
200,2.0,200,273.1322605000023,Go,space,0.3168849000066984,Correct,False,False
201,2.0,201,274.0977647999971,Go,space,0.3521599999949103,Correct,False,False
202,2.0,202,275.0634759999957,Go,space,0.3499289999890607,Correct,False,False
203,2.0,203,276.02936470000714,No_go,space,0.4000569000054383,Incorrect,False,True
204,2.0,204,276.9949312999961,Go,space,0.101049699995201,Correct,False,False
205,2.0,205,277.9590362000017,Go,space,0.3499225999985356,Correct,False,False
206,2.0,206,278.926581599997,No_go,,0.0,Correct,False,False
207,2.0,207,279.8921632999991,Go,space,0.367355199996382,Correct,False,False
208,2.0,208,280.8577420000074,Go,space,0.350134699998307,Correct,False,False
209,2.0,209,281.82302280000295,Go,space,0.4019944000028772,Correct,False,False
210,2.0,210,282.7896749000065,Go,space,0.2848206999915419,Correct,False,False
211,2.0,211,283.7539356000052,Go,space,0.2839607999922009,Correct,False,False
212,2.0,212,284.72074079999584,No_go,space,0.2842814000032376,Incorrect,False,True
213,2.0,213,285.68690070000594,No_go,space,0.2662589999963529,Incorrect,False,True
214,2.0,214,286.652666199996,No_go,space,0.383544600001187,Incorrect,False,True
215,2.0,215,287.6188919999986,Go,space,0.4020523000071989,Correct,False,False
216,2.0,216,288.5831276999961,No_go,space,0.3672871000017039,Incorrect,False,True
217,2.0,217,289.5497705000016,Go,space,0.4332472999958554,Correct,False,False
218,2.0,218,290.5161427999992,Go,space,0.3659383000049274,Correct,False,False
219,2.0,219,291.48137639999914,Go,space,0.366477899995516,Correct,False,False
220,2.0,220,292.4474235999951,No_go,space,0.38305269999546,Incorrect,False,True
221,2.0,221,293.4125444999954,Go,space,0.2855089000076987,Correct,False,False
222,2.0,222,294.37908860000607,No_go,space,0.2829276999982539,Incorrect,False,True
223,2.0,223,295.34458629999426,Go,space,0.3343742999859387,Correct,False,False
224,2.0,224,296.309969599999,Go,space,0.4506474999943748,Correct,False,False
225,3.0,225,306.95391799999925,Go,space,0.4618822000047657,Correct,False,False
226,3.0,226,307.9155196000065,Go,space,0.3010639999993145,Correct,False,False
227,3.0,227,308.8816572000069,No_go,space,0.284097900002962,Incorrect,False,True
228,3.0,228,309.8478657999949,No_go,space,0.3335438999929465,Incorrect,False,True
229,3.0,229,310.8129268000048,No_go,space,0.3511907999927643,Incorrect,False,True
230,3.0,230,311.7791336999944,Go,space,0.366663900000276,Correct,False,False
231,3.0,231,312.7473018000019,Go,space,0.3799406000034651,Correct,False,False
232,3.0,232,313.7099111999996,Go,space,0.3838810000015655,Correct,False,False
233,3.0,233,314.6763720000017,Go,space,0.416697299995576,Correct,False,False
234,3.0,234,315.6417207000049,Go,space,0.4173149999987799,Correct,False,False
235,3.0,235,316.6082890999969,Go,space,0.383507999998983,Correct,False,False
236,3.0,236,317.57308830000693,Go,space,0.2852885000029346,Correct,False,False
237,3.0,237,318.5387076000043,Go,space,0.3343628000002354,Correct,False,False
238,3.0,238,319.5050862000062,Go,space,0.3846583999984432,Correct,False,False
239,3.0,239,320.47125210000377,Go,space,0.3503275999973994,Correct,False,False
240,3.0,240,321.437107699996,Go,space,0.4325205000059213,Correct,False,False
241,3.0,241,322.4013655000017,Go,space,0.2837207999982638,Correct,False,False
242,3.0,242,323.3681576999952,No_go,space,0.300474599993322,Incorrect,False,True
243,3.0,243,324.3340854999988,Go,space,0.466801900009159,Correct,False,False
244,3.0,244,325.2998629000067,Go,space,0.3344764000066789,Correct,False,False
245,3.0,245,326.26579279999714,Go,space,0.4335501999885309,Correct,False,False
246,3.0,246,327.2311622999987,Go,space,0.3513199000008171,Correct,False,False
247,3.0,247,328.19708120000723,Go,space,0.2840238000062527,Correct,False,False
248,3.0,248,329.16268360000686,Go,space,0.2998722000047564,Correct,False,False
249,3.0,249,330.12921850000566,Go,space,0.3663008000003174,Correct,False,False
250,3.0,250,331.09372740000254,Go,space,0.367473099991912,Correct,False,False
251,3.0,251,332.06022879999364,Go,space,0.3510392999887699,Correct,False,False
252,3.0,252,333.02570480000577,Go,space,0.3182265000068582,Correct,False,False
253,3.0,253,333.9914293000038,Go,space,0.3839258000080008,Correct,False,False
254,3.0,254,334.95728869999584,Go,space,0.4007914000103483,Correct,False,False
255,3.0,255,335.92310670000734,Go,space,0.3335733999992953,Correct,False,False
256,3.0,256,336.8890575999976,Go,space,0.3181660999980522,Correct,False,False
257,3.0,257,337.8543651999935,Go,space,0.2863157999963732,Correct,False,False
258,3.0,258,338.8211811999936,Go,space,0.3011827000009361,Correct,False,False
259,3.0,259,339.7857551000052,No_go,space,0.3505200000072364,Incorrect,False,True
260,3.0,260,340.7519422000041,Go,space,0.3342547000065679,Correct,False,False
261,3.0,261,341.7184200000047,Go,space,0.3674747000040952,Correct,False,False
262,3.0,262,342.6840003999969,Go,space,0.3670678000053158,Correct,False,False
263,3.0,263,343.6492159000045,Go,space,0.4165530000027502,Correct,False,False
264,3.0,264,344.61436720000347,Go,space,0.3502778999973088,Correct,False,False
265,3.0,265,345.5808759000065,Go,space,0.2998165000026347,Correct,False,False
266,3.0,266,346.54681820000405,Go,space,0.3000488999969093,Correct,False,False
267,3.0,267,347.5124322000047,Go,space,0.3170618000003742,Correct,False,False
268,3.0,268,348.4776486000046,Go,space,0.3168276000069454,Correct,False,False
269,3.0,269,349.44421849999344,No_go,space,0.2996771000034641,Incorrect,False,True
270,3.0,270,350.40919819999544,Go,space,0.3338263000041479,Correct,False,False
271,3.0,271,351.37568450000254,Go,space,0.3340774999960558,Correct,False,False
272,3.0,272,352.340953299994,Go,space,0.3676610000111395,Correct,False,False
273,3.0,273,353.307773499997,No_go,space,0.3662700999993831,Incorrect,False,True
274,3.0,274,354.27305160000105,Go,space,0.2999256999901263,Correct,False,False
275,3.0,275,355.2380023000005,Go,space,0.3986049999948591,Correct,False,False
276,3.0,276,356.20365150000725,Go,space,0.284452699997928,Correct,False,False
277,3.0,277,357.1697295000049,Go,space,0.3012285999866435,Correct,False,False
278,3.0,278,358.13608470000327,Go,space,0.3830256000073859,Correct,False,False
279,3.0,279,359.1017464000033,Go,space,0.2500212000013562,Correct,False,False
280,3.0,280,360.06745349999983,No_go,space,0.2837009000068065,Incorrect,False,True
281,3.0,281,361.03254359999846,No_go,space,0.3004486999998335,Incorrect,False,True
282,3.0,282,361.99918230000185,No_go,,0.0,Correct,False,False
283,3.0,283,362.9644568999938,Go,space,0.3510326999967219,Correct,False,False
284,3.0,284,363.9298024000018,Go,space,0.2517149000050267,Correct,False,False
285,3.0,285,364.8961007000034,Go,space,0.2830306999967433,Correct,False,False
286,3.0,286,365.8619368000072,Go,space,0.3173773999878904,Correct,False,False
287,3.0,287,366.8260275000066,Go,space,0.3498697000031825,Correct,False,False
288,3.0,288,367.7937423999974,Go,space,0.3174129999970319,Correct,False,False
289,3.0,289,368.7587777000008,Go,space,0.2834090000105789,Correct,False,False
290,3.0,290,369.7247312999971,Go,space,0.3516168999922229,Correct,False,False
291,3.0,291,370.6911473999935,Go,space,0.3332559999980731,Correct,False,False
292,3.0,292,371.6565659000044,Go,space,0.3168833000090671,Correct,False,False
293,3.0,293,372.62211159999424,Go,space,0.3672033000038937,Correct,False,False
294,3.0,294,373.5884725000069,Go,space,0.3486972999962745,Correct,False,False
295,3.0,295,374.553184999997,Go,space,0.2673934000049485,Correct,False,False
296,3.0,296,375.5194502999948,Go,space,0.2851933000056306,Correct,False,False
297,3.0,297,376.4852125000034,Go,space,0.268649199992069,Correct,False,False
298,3.0,298,377.44962519999535,No_go,space,0.3020008000021335,Incorrect,False,True
299,3.0,299,378.41667269999743,Go,space,0.3508216000045649,Correct,False,False
300,3.0,300,379.3823459999985,Go,space,0.3334556000045268,Correct,False,False
301,3.0,301,380.348891200003,Go,space,0.4325673999992432,Correct,False,False
302,3.0,302,381.31443939999735,No_go,space,0.266768100002082,Incorrect,False,True
303,3.0,303,382.2794173000002,No_go,space,0.2679622000141535,Incorrect,False,True
304,3.0,304,383.2461958000058,No_go,space,0.3661863000015728,Incorrect,False,True
305,3.0,305,384.21154980000574,No_go,,0.0,Correct,False,False
306,3.0,306,385.1767392000038,Go,space,0.4003471000032732,Correct,False,False
307,3.0,307,386.1428741999989,Go,space,0.2539362999959849,Correct,False,False
308,3.0,308,387.1089393000002,No_go,space,0.3000909999973373,Incorrect,False,True
309,3.0,309,388.0744796999934,No_go,space,0.3361978000029921,Incorrect,False,True
310,3.0,310,389.0384797000006,Go,space,0.4168107000004966,Correct,False,False
311,3.0,311,390.0059425000072,Go,space,0.233626400004141,Correct,False,False
312,3.0,312,390.971669999999,Go,space,0.2834757000091485,Correct,False,False
313,3.0,313,391.9381057999999,Go,space,0.2667265000054613,Correct,False,False
314,3.0,314,392.9036807999946,No_go,space,0.2495750000089174,Incorrect,False,True
315,4.0,315,404.15498999999545,Go,space,0.4550734000076772,Correct,False,False
316,4.0,316,405.1083389999985,Go,space,0.2504331999953137,Correct,False,False
317,4.0,317,406.07395499999984,Go,space,0.2512484999897424,Correct,False,False
318,4.0,318,407.0401086000056,Go,space,0.3012401000014506,Correct,False,False
319,4.0,319,408.0057174999965,Go,space,0.3174714000051608,Correct,False,False
320,4.0,320,408.97168459999375,No_go,space,0.3341724999918369,Incorrect,False,True
321,4.0,321,409.93756170000415,Go,space,0.3177722999971593,Correct,False,False
322,4.0,322,410.9020865000057,Go,space,0.3164307999977609,Correct,False,False
323,4.0,323,411.8690801000048,Go,space,0.3504802000097697,Correct,False,False
324,4.0,324,412.8340855999995,Go,space,0.351823000004515,Correct,False,False
325,4.0,325,413.800539799995,Go,space,0.351946399998269,Correct,False,False
326,4.0,326,414.7668271000002,No_go,space,0.3164276000024983,Incorrect,False,True
327,4.0,327,415.7314727000048,No_go,space,0.3004806000099052,Incorrect,False,True
328,4.0,328,416.697181800002,Go,space,0.4849646000075154,Correct,False,False
329,4.0,329,417.6638055000076,Go,space,0.2847577999928035,Correct,False,False
330,4.0,330,418.6302832000074,Go,space,0.3825174999947194,Correct,False,False
331,4.0,331,419.59500660000776,Go,space,0.3007511000032536,Correct,False,False
332,4.0,332,420.5610919000028,No_go,space,0.3176147999911336,Incorrect,False,True
333,4.0,333,421.5270043000055,Go,space,0.3175050999998348,Correct,False,False
334,4.0,334,422.4914207999973,No_go,space,0.3010593999933917,Incorrect,False,True
335,4.0,335,423.45816809999815,Go,space,0.3165454000118188,Correct,False,False
336,4.0,336,424.4244839000021,Go,space,0.2834086999937426,Correct,False,False
337,4.0,337,425.39005849999376,Go,space,0.2663391999958548,Correct,False,False
338,4.0,338,426.3557659000071,Go,space,0.3345700000063516,Correct,False,False
339,4.0,339,427.3216061999992,No_go,space,0.2835886999964714,Incorrect,False,True
340,4.0,340,428.28931100000045,No_go,space,0.3488296000141417,Incorrect,False,True
341,4.0,341,429.2534142999939,Go,space,0.4329870000074152,Correct,False,False
342,4.0,342,430.2195200999995,Go,space,0.2666685000003781,Correct,False,False
343,4.0,343,431.1844262999948,Go,space,0.3010477999923751,Correct,False,False
344,4.0,344,432.1492419999995,Go,space,0.2682391999987885,Correct,False,False
345,4.0,345,433.1155872999952,Go,space,0.2999927000055322,Correct,False,False
346,4.0,346,434.080819099996,Go,space,0.3349994000018341,Correct,False,False
347,4.0,347,435.0474206999934,Go,space,0.3505112999991979,Correct,False,False
348,4.0,348,436.0132285,Go,space,0.2828216000052634,Correct,False,False
349,4.0,349,436.9800125000038,Go,space,0.3658371000055922,Correct,False,False
350,4.0,350,437.94440439999744,Go,space,0.3331289999914588,Correct,False,False
351,4.0,351,438.9102583000058,Go,space,0.316734499996528,Correct,False,False
352,4.0,352,439.8760103999957,Go,space,0.3004903999972157,Correct,False,False
353,4.0,353,440.84167660000094,Go,space,0.3171749000030104,Correct,False,False
354,4.0,354,441.8068023999949,Go,space,0.3020572000095853,Correct,False,False
355,4.0,355,442.7732653999992,Go,space,0.251295800000662,Correct,False,False
356,4.0,356,443.74036799999885,Go,space,0.3978817000024719,Correct,False,False
357,4.0,357,444.7033650999947,Go,space,0.3001222000020789,Correct,False,False
358,4.0,358,445.67032990000735,Go,space,0.3008446999883745,Correct,False,False
359,4.0,359,446.6375212999992,No_go,space,0.28243229999498,Incorrect,False,True
360,4.0,360,447.6022405999975,No_go,space,0.3338451000017812,Incorrect,False,True
361,4.0,361,448.56806800000777,Go,space,0.4006903000117745,Correct,False,False
362,4.0,362,449.5333548000053,No_go,space,0.283559100003913,Incorrect,False,True
363,4.0,363,450.49983050000446,Go,space,0.3838027000019792,Correct,False,False
364,4.0,364,451.4650729999994,Go,space,0.2844998999935342,Correct,False,False
365,4.0,365,452.4303407999978,No_go,space,0.2841625000000931,Incorrect,False,True
366,4.0,366,453.3969574999937,Go,space,0.416827099994407,Correct,False,False
367,4.0,367,454.3625746000034,Go,space,0.2833204000053229,Correct,False,False
368,4.0,368,455.32864680000057,No_go,space,0.3148133999929996,Incorrect,False,True
369,4.0,369,456.2932499000017,No_go,space,0.4010653000004822,Incorrect,False,True
370,4.0,370,457.26002820000576,Go,space,0.3848330000037094,Correct,False,False
371,4.0,371,458.2254863999988,No_go,space,0.2338444000051822,Incorrect,False,True
372,4.0,372,459.19135569999344,Go,space,0.3005555999989155,Correct,False,False
373,4.0,373,460.1574596999999,Go,space,0.3165951999981189,Correct,False,False
374,4.0,374,461.1228578000009,Go,space,0.3674109999992652,Correct,False,False
375,4.0,375,462.08884599999874,Go,space,0.2834823000011965,Correct,False,False
376,4.0,376,463.0550055000058,Go,space,0.3010464000108186,Correct,False,False
377,4.0,377,464.01986020000186,Go,space,0.3002255999890622,Correct,False,False
378,4.0,378,464.9852632999973,Go,space,0.3843386999942595,Correct,False,False
379,4.0,379,465.95127829999547,Go,space,0.2822703000128967,Correct,False,False
380,4.0,380,466.916140500005,No_go,space,0.3016897000052267,Incorrect,False,True
381,4.0,381,467.8827744000009,No_go,space,0.2835026999964611,Incorrect,False,True
382,4.0,382,468.84899430000223,Go,space,0.383209200008423,Correct,False,False
383,4.0,383,469.81499769999937,Go,space,0.3505481999891344,Correct,False,False
384,4.0,384,470.7794106999936,Go,space,0.4016778999939561,Correct,False,False
385,4.0,385,471.7468153999944,Go,space,0.3508908999938285,Correct,False,False
386,4.0,386,472.7115421000053,Go,space,0.3336722000094596,Correct,False,False
387,4.0,387,473.6781774999981,Go,space,0.2996529999945778,Correct,False,False
388,4.0,388,474.6423463999963,Go,space,0.3178761999879498,Correct,False,False
389,4.0,389,475.6087636000011,Go,space,0.3175569000013638,Correct,False,False
390,4.0,390,476.5755326000072,Go,space,0.316363599995384,Correct,False,False
391,4.0,391,477.5402633000049,Go,space,0.3159091000125045,Correct,False,False
392,4.0,392,478.5065945999959,Go,space,0.350428899997496,Correct,False,False
393,4.0,393,479.472248799997,Go,space,0.2350754999933997,Correct,False,False
394,4.0,394,480.4384981000039,Go,space,0.334972700002254,Correct,False,False
395,4.0,395,481.40360829999554,Go,space,0.284239599990542,Correct,False,False
396,4.0,396,482.3689390000072,Go,space,0.3345545000047423,Correct,False,False
397,4.0,397,483.3351984000037,Go,space,0.3007933000044431,Correct,False,False
398,4.0,398,484.30121510000026,Go,space,0.3176573999953689,Correct,False,False
399,4.0,399,485.2667394000018,Go,space,0.3828459000069415,Correct,False,False
400,4.0,400,486.23284900000726,Go,space,0.334758500001044,Correct,False,False
401,4.0,401,487.1995040000038,No_go,,0.0,Correct,False,False
402,4.0,402,488.16413259999536,No_go,space,0.3846650999912526,Incorrect,False,True
403,4.0,403,489.12841489999846,Go,space,0.4184538000117754,Correct,False,False
404,4.0,404,490.0956972999993,Go,space,0.2832927999988897,Correct,False,False
405,5.0,405,504.0859093000036,Go,space,0.4802877999900374,Correct,False,False
406,5.0,406,505.048870300001,Go,space,0.2647410000063246,Correct,False,False
407,5.0,407,506.0143692999991,Go,space,0.2842689999961294,Correct,False,False
408,5.0,408,506.9801945999934,No_go,space,0.2675492999987909,Incorrect,False,True
409,5.0,409,507.9464068999951,No_go,space,0.350660299998708,Incorrect,False,True
410,5.0,410,508.9115079000039,No_go,space,0.3672687999933259,Incorrect,False,True
411,5.0,411,509.8781802000012,No_go,,0.0,Correct,False,False
412,5.0,412,510.8420063999947,No_go,space,0.349737999989884,Incorrect,False,True
413,5.0,413,511.8078736000025,Go,space,0.4178824999980861,Correct,False,False
414,5.0,414,512.7752357999998,No_go,,0.0,Correct,False,False
415,5.0,415,513.7403172000049,No_go,space,0.3681019999930868,Incorrect,False,True
416,5.0,416,514.7068841,Go,space,0.4327726000046823,Correct,False,False
417,5.0,417,515.6722029999946,Go,space,0.3999403000052552,Correct,False,False
418,5.0,418,516.6377159999975,Go,space,0.3507736000028671,Correct,False,False
419,5.0,419,517.6034597999969,Go,space,0.4166881999990437,Correct,False,False
420,5.0,420,518.5693848999945,Go,space,0.3853950000047916,Correct,False,False
421,5.0,421,519.5345544000011,Go,space,0.3505403000017395,Correct,False,False
422,5.0,422,520.5005533000076,Go,space,0.2842149999924004,Correct,False,False
423,5.0,423,521.4671221000026,Go,space,0.281554800007143,Correct,False,False
424,5.0,424,522.4307974999974,Go,space,0.2854857999918749,Correct,False,False
425,5.0,425,523.3980727000016,Go,space,0.3005380999966291,Correct,False,False
426,5.0,426,524.3637944999937,Go,space,0.333565400011139,Correct,False,False
427,5.0,427,525.330261199997,No_go,space,0.2676689999934751,Incorrect,False,True
428,5.0,428,526.2952482999972,Go,space,0.4507020000019111,Correct,False,False
429,5.0,429,527.2613452000078,Go,space,0.3343617000064114,Correct,False,False
430,5.0,430,528.2267924000043,Go,space,0.3167928000038955,Correct,False,False
431,5.0,431,529.1928762000025,Go,space,0.3175580999959493,Correct,False,False
432,5.0,432,530.1588923999952,Go,space,0.3503944999974919,Correct,False,False
433,5.0,433,531.1239136000077,Go,space,0.3342559000011533,Correct,False,False
434,5.0,434,532.0900786999991,Go,space,0.3001431000011507,Correct,False,False
435,5.0,435,533.0554730000003,Go,space,0.3320227000076556,Correct,False,False
436,5.0,436,534.0214730000007,Go,space,0.3839691000030143,Correct,False,False
437,5.0,437,534.9875822000031,Go,space,0.3003560999932233,Correct,False,False
438,5.0,438,535.9527880999958,Go,space,0.3673207999963779,Correct,False,False
439,5.0,439,536.9191326,Go,space,0.3830032999976538,Correct,False,False
440,5.0,440,537.884599099998,Go,space,0.4670374999986961,Correct,False,False
441,5.0,441,538.8506198999967,Go,space,0.2508442999969702,Correct,False,False
442,5.0,442,539.8166953000036,Go,space,0.253133300007903,Correct,False,False
443,5.0,443,540.7818947000051,Go,space,0.284364800012554,Correct,False,False
444,5.0,444,541.7484790000017,Go,space,0.2671214000001782,Correct,False,False
445,5.0,445,542.7138375000068,Go,space,0.2172545999928843,Correct,False,False
446,5.0,446,543.679143500005,Go,space,0.2670976000081282,Correct,False,False
447,5.0,447,544.6441726000048,Go,space,0.3177472000097623,Correct,False,False
448,5.0,448,545.6104262000008,Go,space,0.3163273000100162,Correct,False,False
449,5.0,449,546.5769876999984,No_go,space,0.3334142999956384,Incorrect,False,True
450,5.0,450,547.5420727000019,Go,space,0.3185596000112127,Correct,False,False
451,5.0,451,548.5083546999958,Go,space,0.3172597999946447,Correct,False,False
452,5.0,452,549.4739127000066,Go,space,0.2173316999978851,Correct,False,False
453,5.0,453,550.4397173000034,No_go,space,0.2836646999930963,Incorrect,False,True
454,5.0,454,551.406261199998,No_go,space,0.3328996999916853,Incorrect,False,True
455,5.0,455,552.3712387999985,No_go,space,0.3846320000011474,Incorrect,False,True
456,5.0,456,553.3368644000002,Go,space,0.4170966999954544,Correct,False,False
457,5.0,457,554.3023469000036,Go,space,0.2675317999965045,Correct,False,False
458,5.0,458,555.2707616999978,No_go,space,0.2804321000003256,Incorrect,False,True
459,5.0,459,556.2343479999981,Go,space,0.4173777999967569,Correct,False,False
460,5.0,460,557.2001155000034,Go,space,0.3506362000043737,Correct,False,False
461,5.0,461,558.1658186999994,Go,space,0.4020233000046573,Correct,False,False
462,5.0,462,559.1306222999992,No_go,space,0.2857533000060357,Incorrect,False,True
463,5.0,463,560.0971480000007,Go,space,0.3178948999993736,Correct,False,False
464,5.0,464,561.062797000006,Go,space,0.3173756000032881,Correct,False,False
465,5.0,465,562.0289233999938,Go,space,0.383616000006441,Correct,False,False
466,5.0,466,562.9948749000032,Go,space,0.3331070999993244,Correct,False,False
467,5.0,467,563.960158300004,Go,space,0.2332862000039313,Correct,False,False
468,5.0,468,564.9255922000011,Go,space,0.2838496000040322,Correct,False,False
469,5.0,469,565.8922821000015,Go,space,0.3158064000017475,Correct,False,False
470,5.0,470,566.8563993999996,Go,space,0.3010042000096291,Correct,False,False
471,5.0,471,567.823981900001,Go,space,0.3009296000091126,Correct,False,False
472,5.0,472,568.7896665000007,Go,space,0.2678988999978173,Correct,False,False
473,5.0,473,569.7541844999942,No_go,space,0.3336565000063274,Incorrect,False,True
474,5.0,474,570.7206465000054,Go,space,0.2833396999922115,Correct,False,False
475,5.0,475,571.6868679000036,No_go,space,0.2660015000001294,Incorrect,False,True
476,5.0,476,572.6521383999934,Go,space,0.3832112999953097,Correct,False,False
477,5.0,477,573.6182178000017,No_go,,0.0,Correct,False,False
478,5.0,478,574.5833774000057,No_go,space,0.3673220000055153,Incorrect,False,True
479,5.0,479,575.5485826999939,Go,space,0.401561100006802,Correct,False,False
480,5.0,480,576.5152109000046,Go,space,0.3496981000062078,Correct,False,False
481,5.0,481,577.480693000005,Go,space,0.3484281999990344,Correct,False,False
482,5.0,482,578.4467495999997,Go,space,0.3001730999967549,Correct,False,False
483,5.0,483,579.4126862999983,Go,space,0.2995047000003978,Correct,False,False
484,5.0,484,580.3782270999945,Go,space,0.3170315000024857,Correct,False,False
485,5.0,485,581.3447196000052,Go,space,0.3649105999938911,Correct,False,False
486,5.0,486,582.3095078000042,Go,space,0.4003253000119002,Correct,False,False
487,5.0,487,583.274182299996,Go,space,0.2862504999939119,Correct,False,False
488,5.0,488,584.2411797999957,Go,space,0.2993547000078251,Correct,False,False
489,5.0,489,585.2072222999996,Go,space,0.3998804000002565,Correct,False,False
490,5.0,490,586.1715373000043,Go,space,0.2669166999985464,Correct,False,False
491,5.0,491,587.1385059000022,Go,space,0.3002043000014964,Correct,False,False
492,5.0,492,588.1032872000069,Go,space,0.299919700002647,Correct,False,False
493,5.0,493,589.0684467999963,Go,space,0.3347951999894576,Correct,False,False
494,5.0,494,590.0359358999995,Go,space,0.284145500001614,Correct,False,False
495,6.0,495,601.1110023000074,Go,space,0.4808389000099851,Correct,False,False
496,6.0,496,602.0733786000055,Go,space,0.2680496999964816,Correct,False,False
497,6.0,497,603.0397304000071,No_go,space,0.2509773999918252,Incorrect,False,True
498,6.0,498,604.0060655999987,Go,space,0.3339783999981591,Correct,False,False
499,6.0,499,604.9714848000003,Go,space,0.2851261000032536,Correct,False,False
500,6.0,500,605.937308099994,No_go,,0.0,Correct,False,False
501,6.0,501,606.903215600003,Go,space,0.3179151999938767,Correct,False,False
502,6.0,502,607.8683477000013,Go,space,0.3497540000098524,Correct,False,False
503,6.0,503,608.8348723999952,Go,space,0.2667386999964947,Correct,False,False
504,6.0,504,609.8003490999981,Go,space,0.3006569999997737,Correct,False,False
505,6.0,505,610.7658272999979,Go,space,0.2835434000007808,Correct,False,False
506,6.0,506,611.7317119999934,Go,space,0.3008440999983577,Correct,False,False
507,6.0,507,612.6978055999934,Go,space,0.3336254000023473,Correct,False,False
508,6.0,508,613.663197899994,Go,space,0.2674033000075724,Correct,False,False
509,6.0,509,614.6294595000072,Go,space,0.3004825999960303,Correct,False,False
510,6.0,510,615.5949548000062,Go,space,0.3685677000030409,Correct,False,False
511,6.0,511,616.5606695000024,Go,space,0.4164694000064628,Correct,False,False
512,6.0,512,617.5267867000075,Go,space,0.2501875999878393,Correct,False,False
513,6.0,513,618.4917268999998,No_go,space,0.2333173999941209,Incorrect,False,True
514,6.0,514,619.4574944000051,Go,space,0.3174195999890798,Correct,False,False
515,6.0,515,620.4237237000052,Go,space,0.3006123999948613,Correct,False,False
516,6.0,516,621.3890771000006,Go,space,0.3181061000068439,Correct,False,False
517,6.0,517,622.3546379000036,Go,space,0.2503501000028336,Correct,False,False
518,6.0,518,623.3211474999989,Go,space,0.2833702000061748,Correct,False,False
519,6.0,519,624.2876054999942,Go,space,0.2827938999980688,Correct,False,False
520,6.0,520,625.252408100001,Go,space,0.3005320999945979,Correct,False,False
521,6.0,521,626.218641200001,Go,space,0.3338282000040635,Correct,False,False
522,6.0,522,627.1838100000023,Go,space,0.2673351999983424,Correct,False,False
523,6.0,523,628.1496695999958,Go,space,0.2499475999939022,Correct,False,False
524,6.0,524,629.1156531000015,Go,space,0.2845800000068266,Correct,False,False
525,6.0,525,630.0815495999996,Go,space,0.2999559000018053,Correct,False,False
526,6.0,526,631.0474434000062,No_go,space,0.3503332999971462,Incorrect,False,True
527,6.0,527,632.0130174000078,Go,space,0.3342957999993814,Correct,False,False
528,6.0,528,632.9791504000023,Go,space,0.2658490000030724,Correct,False,False
529,6.0,529,633.9442917999986,Go,space,0.2844576999923447,Correct,False,False
530,6.0,530,634.9106632000039,Go,space,0.2503432999947108,Correct,False,False
531,6.0,531,635.8763346000051,Go,space,0.2661129000043729,Correct,False,False
532,6.0,532,636.8418478999956,No_go,space,0.2336078000080306,Incorrect,False,True
533,6.0,533,637.8071500000078,No_go,space,0.3343442999903345,Incorrect,False,True
534,6.0,534,638.7734704000031,Go,space,0.4334971999924164,Correct,False,False
535,6.0,535,639.739684900007,Go,space,0.2167049999989103,Correct,False,False
536,6.0,536,640.7050223999977,No_go,space,0.2497584999946411,Incorrect,False,True
537,6.0,537,641.6716871999961,Go,space,0.285645600000862,Correct,False,False
538,6.0,538,642.6377883999958,Go,space,0.4155945999955293,Correct,False,False
539,6.0,539,643.6025861999951,No_go,space,0.2834907999931602,Incorrect,False,True
540,6.0,540,644.5676934000076,No_go,space,0.2675235000060638,Incorrect,False,True
541,6.0,541,645.5344113000028,Go,space,0.4003553999937139,Correct,False,False
542,6.0,542,646.5001458000042,Go,space,0.2331986000062897,Correct,False,False
543,6.0,543,647.4659166000056,Go,space,0.2499663999915355,Correct,False,False
544,6.0,544,648.4316146000056,Go,space,0.2500654999894323,Correct,False,False
545,6.0,545,649.3968320999993,Go,space,0.2842512000061106,Correct,False,False
546,6.0,546,650.3622843000048,No_go,space,0.2683311000000685,Incorrect,False,True
547,6.0,547,651.3289351999993,No_go,space,0.2344853999966289,Incorrect,False,True
548,6.0,548,652.2957413999975,Go,space,0.3486007000028621,Correct,False,False
549,6.0,549,653.2604736000067,No_go,space,0.2667809999984456,Incorrect,False,True
550,6.0,550,654.2265791999962,Go,space,0.2996907000051578,Correct,False,False
551,6.0,551,655.1914101000002,Go,space,0.299808399999165,Correct,False,False
552,6.0,552,656.1583700000047,Go,space,0.2682829999976093,Correct,False,False
553,6.0,553,657.1237071000069,Go,space,0.2496856000070693,Correct,False,False
554,6.0,554,658.0890205000032,Go,space,0.2684501000039745,Correct,False,False
555,6.0,555,659.054956299995,Go,space,0.2668532000097912,Correct,False,False
556,6.0,556,660.0204565000022,Go,space,0.3832698999904096,Correct,False,False
557,6.0,557,660.9867323999933,Go,space,0.2360004999936791,Correct,False,False
558,6.0,558,661.952615000002,Go,space,0.2502605999907246,Correct,False,False
559,6.0,559,662.9174730999948,Go,space,0.3006615000049351,Correct,False,False
560,6.0,560,663.8847042999987,Go,space,0.2333617999975104,Correct,False,False
561,6.0,561,664.8496365000028,Go,space,0.1004562000016449,Correct,False,False
562,6.0,562,665.8157862999942,No_go,space,0.2828310000040801,Incorrect,False,True
563,6.0,563,666.7799999999988,No_go,space,0.3348347999999532,Incorrect,False,True
564,6.0,564,667.7474827999977,Go,space,0.4827750999975251,Correct,False,False
565,6.0,565,668.7123754000058,Go,space,0.2178190999984508,Correct,False,False
566,6.0,566,669.6780066000065,No_go,space,0.2355654999992111,Incorrect,False,True
567,6.0,567,670.6445283000066,Go,space,0.4164389999932609,Correct,False,False
568,6.0,568,671.6099752000009,Go,space,0.2528139000060037,Correct,False,False
569,6.0,569,672.5755709000077,Go,space,0.217396899999585,Correct,False,False
570,6.0,570,673.5415381000057,Go,space,0.2665632999996887,Correct,False,False
571,6.0,571,674.5074418000004,Go,space,0.2669983999949181,Correct,False,False
572,6.0,572,675.4729534000071,Go,space,0.2675905999931274,Correct,False,False
573,6.0,573,676.438840200004,Go,space,0.3336347000004025,Correct,False,False
574,6.0,574,677.4046104000008,Go,space,0.232618399997591,Correct,False,False
575,6.0,575,678.3695060000027,Go,space,0.3016725000052247,Correct,False,False
576,6.0,576,679.3363650999963,No_go,space,0.2673769000102766,Incorrect,False,True
577,6.0,577,680.3024377999973,Go,space,0.3495933999947738,Correct,False,False
578,6.0,578,681.2677742999949,No_go,space,0.300844400000642,Incorrect,False,True
579,6.0,579,682.2334859999974,Go,space,0.2839786999975331,Correct,False,False
580,6.0,580,683.1978380000073,Go,space,0.3047722999908728,Correct,False,False
581,6.0,581,684.1642320999963,No_go,space,0.3160235999966971,Incorrect,False,True
582,6.0,582,685.1297295999975,Go,space,0.3003356999979587,Correct,False,False
583,6.0,583,686.0967533999938,Go,space,0.3989746000006562,Correct,False,False
584,6.0,584,687.0615987000056,Go,space,0.2676390999986324,Correct,False,False
