,block_index,trial,trial_onset(s),stimulus_type,resp_key,rt(s),correct,is_omission,is_comission
0,,0,19.60916960000759,Go,space,0.7644116000155918,Correct,False,False
1,,1,20.62279860000126,Go,space,0.7501857000170276,Correct,False,False
2,,2,21.637913300015494,Go,space,0.45123639999656,Correct,False,False
3,,3,22.65421390000847,Go,space,0.2663910999835934,Correct,False,False
4,,4,23.670077799994036,Go,space,0.2672680999967269,Correct,False,False
5,,5,24.68628500000341,Go,space,0.2497419000137597,Correct,False,False
6,,6,25.701291000004854,Go,space,0.2342251999943982,Correct,False,False
7,,7,26.717292999994243,Go,space,0.3184103999810759,Correct,False,False
8,,8,27.73279320000438,Go,space,0.2832624000147916,Correct,False,False
9,,9,28.74822320000385,Go,space,0.2507956999761518,Correct,False,False
10,,10,29.76414260000456,Go,space,0.2842512000061106,Correct,False,False
11,,11,30.78007860001526,No_go,space,0.2498532000172417,Incorrect,False,True
12,,12,31.79666230001021,Go,,0.0,Incorrect,True,False
13,,13,33.816953600005945,No_go,space,0.4283800999983214,Incorrect,False,True
14,,14,34.825796499993885,Go,space,0.5840923000068869,Correct,False,False
15,,15,35.84142199999769,Go,space,0.4014588000136427,Correct,False,False
16,,16,36.85782649999601,Go,space,0.2831776000093668,Correct,False,False
17,,17,37.87328830000479,Go,space,0.2515637999749742,Correct,False,False
18,,18,38.8890861000109,Go,space,0.5170486999850255,Correct,False,False
19,,19,39.90441170000122,Go,space,0.2671522000164259,Correct,False,False
20,,20,40.92056230001617,Go,space,0.017730899999151,Correct,False,False
21,,21,41.93642600000021,No_go,space,0.4821552999783307,Incorrect,False,True
22,,22,42.9520368000085,Go,space,0.8328768000064883,Correct,False,False
23,,23,43.96723149999161,No_go,space,0.8164697999891359,Incorrect,False,True
24,,24,44.98219529999187,Go,space,0.9842263000027742,Correct,False,False
25,,25,45.99994569999399,Go,,0.0,Incorrect,True,False
26,,26,48.02186770000844,Go,,0.0,Incorrect,True,False
27,,27,50.03784780000569,Go,space,0.4409632999741006,Correct,False,False
28,,28,51.04399269999704,Go,space,0.4837181000038981,Correct,False,False
29,,29,52.059871900011785,Go,space,0.3835743000090588,Correct,False,False
30,,30,53.07579589998932,No_go,space,0.3355455999844707,Incorrect,False,True
31,,31,54.09176410001237,Go,,0.0,Incorrect,True,False
32,,32,56.11599180000485,Go,space,0.2918920000083744,Correct,False,False
33,,33,57.12218149998807,No_go,space,0.3183868000051006,Incorrect,False,True
34,,34,58.13807220000308,No_go,space,0.549615800002357,Incorrect,False,True
35,,35,59.15354870000738,Go,space,0.5503381000016816,Correct,False,False
36,,36,60.16938259999733,Go,space,0.750368700013496,Correct,False,False
37,,37,61.185319899988826,Go,space,0.5329453000158537,Correct,False,False
38,,38,62.20049909999943,Go,space,0.3840190999908373,Correct,False,False
39,,39,63.21618730001501,No_go,,0.0,Correct,False,False
40,,40,65.23834559999523,Go,space,0.7767071000125725,Correct,False,False
41,,41,66.24723529999028,No_go,,0.0,Correct,False,False
42,,42,68.2692728000111,Go,space,0.2943354999879375,Correct,False,False
43,,43,69.27771900000516,Go,space,0.566403699980583,Correct,False,False
44,,44,70.29314409999643,Go,space,0.5336204000050202,Correct,False,False
45,1.0,45,76.79519850001088,Go,space,0.8752815000189003,Correct,False,False
46,1.0,46,77.78607070000726,Go,space,0.5171919999993406,Correct,False,False
47,1.0,47,78.78512710001087,Go,space,0.3691094999958295,Correct,False,False
48,1.0,48,79.78387799998745,No_go,space,0.3167442000121809,Incorrect,False,True
49,1.0,49,80.78328629999305,Go,space,0.4168920000083744,Correct,False,False
50,1.0,50,81.78199049999239,Go,space,0.4336371000099461,Correct,False,False
51,1.0,51,82.7818474000087,No_go,space,0.3668969999998808,Incorrect,False,True
52,1.0,52,83.78028500001528,Go,space,0.583628399996087,Correct,False,False
53,1.0,53,84.78029250001418,Go,space,0.5661347999994177,Correct,False,False
54,1.0,54,85.77865409999504,Go,space,0.4176617999910377,Correct,False,False
55,1.0,55,86.7779475999996,Go,space,0.3680390999943483,Correct,False,False
56,1.0,56,87.77683280000929,No_go,space,0.7668038999836426,Incorrect,False,True
57,1.0,57,88.77614989998983,Go,,0.0,Incorrect,True,False
58,1.0,58,89.77481679999619,No_go,space,0.3173653999983798,Incorrect,False,True
59,1.0,59,90.7737110000162,Go,space,0.5181594000023324,Correct,False,False
60,1.0,60,91.77303549999488,Go,space,0.5496287999849301,Correct,False,False
61,1.0,61,92.7718470999971,No_go,,0.0,Correct,False,False
62,1.0,62,93.77157469998927,Go,space,0.3166785000066738,Correct,False,False
63,1.0,63,94.77015850000316,Go,space,0.6169364000088535,Correct,False,False
64,1.0,64,95.76925410001422,Go,space,0.6167033000092488,Correct,False,False
65,1.0,65,96.768370100006,Go,space,0.5499491000082344,Correct,False,False
66,1.0,66,97.767846200004,Go,space,0.4832797999843023,Correct,False,False
67,1.0,67,98.76697749999585,Go,space,0.4158830000087619,Correct,False,False
68,1.0,68,99.7651417000161,Go,space,0.4168201000138651,Correct,False,False
69,1.0,69,100.76484039999195,Go,space,0.3330843999865465,Correct,False,False
70,1.0,70,101.76421990001108,No_go,space,0.3501158000144642,Incorrect,False,True
71,1.0,71,102.76239099999655,Go,space,0.4513754999788943,Correct,False,False
72,1.0,72,103.76183450000826,Go,space,0.4504979000193998,Correct,False,False
73,1.0,73,104.7606863999972,No_go,,0.0,Correct,False,False
74,1.0,74,105.75999970000704,Go,space,0.3013960999960545,Correct,False,False
75,1.0,75,106.75831480001216,Go,space,0.5020459999796003,Correct,False,False
76,1.0,76,107.75838889999432,No_go,,0.0,Correct,False,False
77,1.0,77,108.75725590001092,Go,space,0.333481900015613,Correct,False,False
78,1.0,78,109.75633969999036,Go,space,0.5005369999853428,Correct,False,False
79,1.0,79,110.75540960000944,Go,space,0.4837638000026345,Correct,False,False
80,1.0,80,111.75446100000408,Go,space,0.499761099985335,Correct,False,False
81,1.0,81,112.75323100000968,Go,space,0.4832754000090062,Correct,False,False
82,1.0,82,113.75279999998747,No_go,space,0.3997009999875445,Incorrect,False,True
83,1.0,83,114.7514480999962,Go,space,0.4502245000039693,Correct,False,False
84,1.0,84,115.75053859999753,Go,space,0.3333591999835334,Correct,False,False
85,1.0,85,116.74953209998785,Go,space,0.3187565999978687,Correct,False,False
86,1.0,86,117.74887519999174,Go,space,0.3338081000256352,Correct,False,False
87,1.0,87,118.74778470001183,Go,space,0.3836247000144794,Correct,False,False
88,1.0,88,119.74683950000326,No_go,space,0.3500381000048946,Incorrect,False,True
89,1.0,89,120.74655720000736,Go,space,0.3996351000096183,Correct,False,False
90,1.0,90,121.74489279999398,No_go,space,0.36695680001867,Incorrect,False,True
91,1.0,91,122.7442122999928,Go,space,0.5486732000135817,Correct,False,False
92,1.0,92,123.74330040000496,Go,space,0.6662728000083007,Correct,False,False
93,1.0,93,124.7424949000124,Go,space,0.6657229000120424,Correct,False,False
94,1.0,94,125.74172710001584,Go,space,0.583014900010312,Correct,False,False
95,1.0,95,126.7402876999986,Go,space,0.4503245999803766,Correct,False,False
96,1.0,96,127.73959829998785,Go,space,0.4165708000073209,Correct,False,False
97,1.0,97,128.73805340001127,No_go,,0.0,Correct,False,False
98,1.0,98,129.7379218999995,Go,space,0.3046734999807086,Correct,False,False
99,1.0,99,130.7369188000157,Go,space,0.3833726000157185,Correct,False,False
100,1.0,100,131.73603590001585,Go,space,0.4186683000007178,Correct,False,False
101,1.0,101,132.73437210000702,Go,space,0.3341509999881964,Correct,False,False
102,1.0,102,133.73438969999552,Go,space,0.3013329000095837,Correct,False,False
103,1.0,103,134.733358700003,Go,space,0.3331962999945972,Correct,False,False
104,1.0,104,135.7321888000006,Go,space,0.3337324000021908,Correct,False,False
105,1.0,105,136.7304540000041,No_go,space,0.3175121999811381,Incorrect,False,True
106,1.0,106,137.7298649000004,No_go,,0.0,Correct,False,False
107,1.0,107,138.72855920001166,Go,space,0.2995420999941416,Correct,False,False
108,1.0,108,139.72710829999414,Go,space,0.3174119000032078,Correct,False,False
109,1.0,109,140.72680900001433,Go,space,0.2673656000115443,Correct,False,False
110,1.0,110,141.72584619998815,No_go,space,0.3340331999934278,Incorrect,False,True
111,1.0,111,142.7253728999931,Go,space,0.4666615000169258,Correct,False,False
112,1.0,112,143.72437640000135,Go,space,0.3834362000052351,Correct,False,False
113,1.0,113,144.7234562000085,Go,space,0.3847899000102188,Correct,False,False
114,1.0,114,145.7220836000051,Go,space,0.3509748000069521,Correct,False,False
115,1.0,115,146.7213991000026,Go,space,0.3506791999971028,Correct,False,False
116,1.0,116,147.72083110001404,Go,space,0.3661679000069853,Correct,False,False
117,1.0,117,148.71969319999334,Go,space,0.465706399991177,Correct,False,False
118,1.0,118,149.71832740001264,Go,space,0.4176418999850284,Correct,False,False
119,1.0,119,150.71746240000357,Go,space,0.3505342999997083,Correct,False,False
120,1.0,120,151.71644560000277,Go,space,0.3666901999968104,Correct,False,False
121,1.0,121,152.71555039999657,Go,space,0.5001095999905374,Correct,False,False
122,1.0,122,153.71432410000125,No_go,space,0.3678204999887384,Incorrect,False,True
123,1.0,123,154.71436489999178,Go,space,0.9001197000034153,Correct,False,False
124,1.0,124,155.7125315000012,Go,space,0.5666493000171613,Correct,False,False
125,1.0,125,156.7115436999884,Go,space,0.4005202999978792,Correct,False,False
126,1.0,126,157.7105625999975,No_go,space,0.3503871000139043,Incorrect,False,True
127,1.0,127,158.7095057000115,Go,space,0.3508860000001732,Correct,False,False
128,1.0,128,159.70897100001457,Go,space,0.3160187000175938,Correct,False,False
129,1.0,129,160.70750540000154,Go,space,0.3687641999858897,Correct,False,False
130,1.0,130,161.7079448000004,Go,space,0.3169463999802246,Correct,False,False
131,1.0,131,162.70653910000692,No_go,space,0.3667554999992717,Incorrect,False,True
132,1.0,132,163.70559540000977,Go,space,0.6513941999874078,Correct,False,False
133,1.0,133,164.70441609999398,Go,space,0.3665592999896034,Correct,False,False
134,1.0,134,165.7034416999959,Go,space,0.4829694000072777,Correct,False,False
135,2.0,135,171.7630255999975,No_go,,0.0,Correct,False,False
136,2.0,136,172.76275890000397,Go,space,0.3339634999865666,Correct,False,False
137,2.0,137,173.76234390001628,Go,space,0.2997803000034764,Correct,False,False
138,2.0,138,174.76090759999352,Go,space,0.3168085000070277,Correct,False,False
139,2.0,139,175.76040229998762,Go,space,0.3161847000010311,Correct,False,False
140,2.0,140,176.75918850000016,Go,space,0.3497621999995317,Correct,False,False
141,2.0,141,177.75818239999353,Go,space,0.3500985999999102,Correct,False,False
142,2.0,142,178.75777840000228,Go,space,0.3187043000070844,Correct,False,False
143,2.0,143,179.75693070000852,Go,space,0.3502392999944277,Correct,False,False
144,2.0,144,180.7565370000084,Go,space,0.366527899983339,Correct,False,False
145,2.0,145,181.755256000004,No_go,space,0.3012153999879956,Incorrect,False,True
146,2.0,146,182.75432129998808,Go,space,0.3500962000107392,Correct,False,False
147,2.0,147,183.75343159999463,Go,space,0.3168938999879174,Correct,False,False
148,2.0,148,184.75257489999055,No_go,space,0.3332574999949429,Incorrect,False,True
149,2.0,149,185.7516096000036,Go,space,0.3335722000047099,Correct,False,False
150,2.0,150,186.7506461000012,Go,space,0.3334143999963999,Correct,False,False
151,2.0,151,187.7497752000054,Go,space,0.3663349999987986,Correct,False,False
152,2.0,152,188.7487650999974,Go,space,0.3494840000057593,Correct,False,False
153,2.0,153,189.74779580000904,No_go,space,0.3659352999820839,Incorrect,False,True
154,2.0,154,190.74682299999404,Go,space,0.3004712000256404,Correct,False,False
155,2.0,155,191.74590989999703,Go,space,0.2849744000122882,Correct,False,False
156,2.0,156,192.74487080000108,Go,space,0.3668030000117142,Correct,False,False
157,2.0,157,193.7437396000023,No_go,space,0.2841168000013567,Incorrect,False,True
158,2.0,158,194.7430356999976,Go,space,0.3665454000001773,Correct,False,False
159,2.0,159,195.74200860000565,Go,space,0.3337601000093855,Correct,False,False
160,2.0,160,196.7411844000162,Go,space,0.2834598000044934,Correct,False,False
161,2.0,161,197.73995980000475,Go,space,0.33363880001707,Correct,False,False
162,2.0,162,198.73933380001108,No_go,space,0.3169379000028129,Incorrect,False,True
163,2.0,163,199.73822679999284,Go,space,0.4171006999968085,Correct,False,False
164,2.0,164,200.737671800016,Go,space,0.4170367999759037,Correct,False,False
165,2.0,165,201.73647989999156,Go,space,0.3670718999928795,Correct,False,False
166,2.0,166,202.73559329999264,Go,space,0.3170911000052001,Correct,False,False
167,2.0,167,203.73519559999116,Go,space,0.3681943000119645,Correct,False,False
168,2.0,168,204.73361630001452,Go,space,0.3004434999893419,Correct,False,False
169,2.0,169,205.7329841000028,Go,space,0.3002221999922767,Correct,False,False
170,2.0,170,206.73165020000303,Go,space,0.3004843000089749,Correct,False,False
171,2.0,171,207.73084040000683,Go,space,0.2836623000039253,Correct,False,False
172,2.0,172,208.7302739000006,Go,space,0.3000560000073164,Correct,False,False
173,2.0,173,209.72900839999784,No_go,space,0.3335463000112213,Incorrect,False,True
174,2.0,174,210.72789899999043,Go,space,0.2668455999810248,Correct,False,False
175,2.0,175,211.7271260000125,No_go,space,0.2504919999919366,Incorrect,False,True
176,2.0,176,212.72632960000192,No_go,,0.0,Correct,False,False
177,2.0,177,213.72507600000245,No_go,,0.0,Correct,False,False
178,2.0,178,214.7245069000055,No_go,,0.0,Correct,False,False
179,2.0,179,215.7234399000008,Go,space,0.4170652000175323,Correct,False,False
180,2.0,180,216.7229956999945,Go,space,0.4681469000061042,Correct,False,False
181,2.0,181,217.72193689999403,Go,space,0.5167757000017446,Correct,False,False
182,2.0,182,218.72143259999572,Go,space,0.3831635000242386,Correct,False,False
183,2.0,183,219.7209695999918,Go,space,0.4161919000034686,Correct,False,False
184,2.0,184,220.71944429998985,Go,space,0.3999637000088114,Correct,False,False
185,2.0,185,221.71860270001343,Go,space,0.3519494000065606,Correct,False,False
186,2.0,186,222.71677299999283,Go,space,0.4670493000012357,Correct,False,False
187,2.0,187,223.7166886999912,Go,space,0.4496771999984048,Correct,False,False
188,2.0,188,224.71560689999023,Go,space,0.4335055999981705,Correct,False,False
189,2.0,189,225.7139814000111,No_go,space,0.3841616999998223,Incorrect,False,True
190,2.0,190,226.71380950001185,Go,space,0.3672818999912124,Correct,False,False
191,2.0,191,227.7124984000111,Go,space,0.334243300021626,Correct,False,False
192,2.0,192,228.7125154999958,Go,space,0.3331825000059325,Correct,False,False
193,2.0,193,229.7108634999895,Go,space,0.5003725999849848,Correct,False,False
194,2.0,194,230.7103137999948,Go,space,0.3159392999950796,Correct,False,False
195,2.0,195,231.70922200000496,Go,space,0.2838059999921825,Correct,False,False
196,2.0,196,232.7077246000117,Go,space,0.3171962000196799,Correct,False,False
197,2.0,197,233.70728860000963,No_go,space,0.4005290999775752,Incorrect,False,True
198,2.0,198,234.70583389999229,Go,space,0.4665882000117562,Correct,False,False
199,2.0,199,235.70458359998884,Go,space,0.3166935000044759,Correct,False,False
200,2.0,200,236.70423609999125,Go,space,0.3000580999942031,Correct,False,False
201,2.0,201,237.70304600000964,No_go,,0.0,Correct,False,False
202,2.0,202,238.70203799998853,Go,space,0.3334794000256806,Correct,False,False
203,2.0,203,239.70088809999288,Go,space,0.350437699991744,Correct,False,False
204,2.0,204,240.6998859999876,Go,space,0.3665524999960325,Correct,False,False
205,2.0,205,241.69928800000343,Go,space,0.4169043999863788,Correct,False,False
206,2.0,206,242.69837190001272,Go,space,0.350173699989682,Correct,False,False
207,2.0,207,243.69742899999252,Go,space,0.3676743000105489,Correct,False,False
208,2.0,208,244.69628460000968,Go,space,0.4004827000026125,Correct,False,False
209,2.0,209,245.69545719999587,Go,space,0.3659332000243012,Correct,False,False
210,2.0,210,246.6939917000127,Go,space,0.4181563000020105,Correct,False,False
211,2.0,211,247.6936985999928,Go,space,0.3997836000053212,Correct,False,False
212,2.0,212,248.6928148000152,No_go,,0.0,Correct,False,False
213,2.0,213,249.691659300006,Go,space,0.3334201000106986,Correct,False,False
214,2.0,214,250.69066980000932,No_go,space,0.3174502000038046,Incorrect,False,True
215,2.0,215,251.68972180000856,No_go,,0.0,Correct,False,False
216,2.0,216,252.6888654000068,Go,space,0.4006355000019539,Correct,False,False
217,2.0,217,253.6875411999936,Go,space,0.3675398000050336,Correct,False,False
218,2.0,218,254.68710859998828,No_go,space,0.3166014999733306,Incorrect,False,True
219,2.0,219,255.6865044000151,Go,space,0.600395599991316,Correct,False,False
220,2.0,220,256.68507040000986,Go,space,0.4673142000101506,Correct,False,False
221,2.0,221,257.6839730000065,Go,space,0.350583599996753,Correct,False,False
222,2.0,222,258.6835223000089,Go,space,0.3509669000050053,Correct,False,False
223,2.0,223,259.6822145000042,Go,space,0.3502237999928184,Correct,False,False
224,2.0,224,260.6812948000152,Go,space,0.4004498999856878,Correct,False,False
225,3.0,225,265.51333620000514,Go,space,0.5477904000144918,Correct,False,False
226,3.0,226,266.5094371000014,No_go,space,0.3173964000015985,Incorrect,False,True
227,3.0,227,267.5082589999947,Go,space,0.2841851999983191,Correct,False,False
228,3.0,228,268.5079754999897,Go,space,0.3664168999821413,Correct,False,False
229,3.0,229,269.50991170000634,Go,space,0.3143650999991223,Correct,False,False
230,3.0,230,270.5055085000058,Go,space,0.3674108000122942,Correct,False,False
231,3.0,231,271.505318200012,No_go,space,0.3672116000088863,Incorrect,False,True
232,3.0,232,272.50454389999504,No_go,,0.0,Correct,False,False
233,3.0,233,273.5031982999935,Go,space,0.3677413999976124,Correct,False,False
234,3.0,234,274.501757799997,Go,space,0.3516636999847833,Correct,False,False
235,3.0,235,275.5014121000131,Go,space,0.3332459999946877,Correct,False,False
236,3.0,236,276.50073980001616,Go,space,0.3999520999786909,Correct,False,False
237,3.0,237,277.49917070000083,Go,space,0.3335062999976799,Correct,False,False
238,3.0,238,278.49876439999207,Go,space,0.3329521999985445,Correct,False,False
239,3.0,239,279.4979961999925,Go,space,0.3162973999860696,Correct,False,False
240,3.0,240,280.4963245000108,Go,space,0.3336465000174939,Correct,False,False
241,3.0,241,281.49516120000044,Go,space,0.3179675000137649,Correct,False,False
242,3.0,242,282.4948963999923,Go,space,0.2670628000050783,Correct,False,False
243,3.0,243,283.4932824000134,Go,space,0.3011998999863863,Correct,False,False
244,3.0,244,284.49233609999646,No_go,space,0.2523512000043411,Incorrect,False,True
245,3.0,245,285.4920022000151,Go,space,0.4165563000133261,Correct,False,False
246,3.0,246,286.49004720000084,Go,space,0.3175255999958608,Correct,False,False
247,3.0,247,287.490277600009,Go,space,0.3017604999768082,Correct,False,False
248,3.0,248,288.4897470000142,Go,space,0.2489524999982677,Correct,False,False
249,3.0,249,289.48775749999913,Go,space,0.3174997000023722,Correct,False,False
250,3.0,250,290.48725969999214,Go,space,0.2506623999797739,Correct,False,False
251,3.0,251,291.4867635999981,Go,space,0.3162842000019736,Correct,False,False
252,3.0,252,292.4859193000011,Go,space,0.3336791999754496,Correct,False,False
253,3.0,253,293.48482919999515,No_go,space,0.3498961000004783,Incorrect,False,True
254,3.0,254,294.48367270000745,No_go,,0.0,Correct,False,False
255,3.0,255,295.4822978999873,Go,space,0.3177334000065457,Correct,False,False
256,3.0,256,296.4812525000016,Go,space,0.3510957999969832,Correct,False,False
257,3.0,257,297.4802758000151,Go,space,0.3681209999776911,Correct,False,False
258,3.0,258,298.4798632999882,Go,space,0.3501067000033799,Correct,False,False
259,3.0,259,299.4788370000024,Go,space,0.4671199999866076,Correct,False,False
260,3.0,260,300.47838149999734,Go,space,0.3334444999927655,Correct,False,False
261,3.0,261,301.4766268999956,Go,space,0.3006373000098392,Correct,False,False
262,3.0,262,302.47604050001246,No_go,space,0.2687397999980021,Incorrect,False,True
263,3.0,263,303.4754681999912,Go,space,0.2833067000028677,Correct,False,False
264,3.0,264,304.4746194999898,Go,space,0.2837514000129886,Correct,False,False
265,3.0,265,305.47432080001454,Go,space,0.282869299990125,Correct,False,False
266,3.0,266,306.4729350999987,Go,space,0.3340829999942798,Correct,False,False
267,3.0,267,307.47163260000525,Go,space,0.3176168999925721,Correct,False,False
268,3.0,268,308.470643800014,Go,space,0.3173344999959226,Correct,False,False
269,3.0,269,309.4700553000148,Go,space,0.3329116000095382,Correct,False,False
270,3.0,270,310.46850119999726,Go,space,0.3840998000232503,Correct,False,False
271,3.0,271,311.46869159999187,No_go,space,0.3325924999953713,Incorrect,False,True
272,3.0,272,312.4669380999985,No_go,space,0.3174474999832455,Incorrect,False,True
273,3.0,273,313.46634839999024,Go,space,0.4337029000162147,Correct,False,False
274,3.0,274,314.46502470001,No_go,,0.0,Correct,False,False
275,3.0,275,315.4640839000058,Go,space,0.285242299985839,Correct,False,False
276,3.0,276,316.46365660001175,Go,space,0.3003711999917868,Correct,False,False
277,3.0,277,317.46259579999605,No_go,,0.0,Correct,False,False
278,3.0,278,318.461487099994,Go,space,0.3167965000029653,Correct,False,False
279,3.0,279,319.460387500003,Go,space,0.3516974999802187,Correct,False,False
280,3.0,280,320.45946390001336,Go,space,0.3671969999850262,Correct,False,False
281,3.0,281,321.45875729998806,Go,space,0.3005613999848719,Correct,False,False
282,3.0,282,322.4577122000046,Go,space,0.3667142000049352,Correct,False,False
283,3.0,283,323.4566790999961,Go,space,0.2674588999943807,Correct,False,False
284,3.0,284,324.45592169999145,No_go,space,0.2338896000001114,Incorrect,False,True
285,3.0,285,325.4550608000136,No_go,,0.0,Correct,False,False
286,3.0,286,326.453677100013,Go,space,0.2845400999940466,Correct,False,False
287,3.0,287,327.4529882000061,No_go,space,0.3006247000012081,Incorrect,False,True
288,3.0,288,328.45187109999824,Go,space,0.4505447999981697,Correct,False,False
289,3.0,289,329.4507189000142,Go,space,0.3505358999827876,Correct,False,False
290,3.0,290,330.45036190000246,Go,space,0.3328544000105466,Correct,False,False
291,3.0,291,331.44929910000064,Go,space,0.3334774000104517,Correct,False,False
292,3.0,292,332.4483426999941,Go,space,0.3171825000026729,Correct,False,False
293,3.0,293,333.4475594999967,Go,space,0.2831678999937139,Correct,False,False
294,3.0,294,334.44684509999934,Go,space,0.3002995999995619,Correct,False,False
295,3.0,295,335.44612710000365,No_go,space,0.317699100007303,Incorrect,False,True
296,3.0,296,336.4441513000056,Go,space,0.5338812999834772,Correct,False,False
297,3.0,297,337.4429034999921,Go,space,0.2678708999883383,Correct,False,False
298,3.0,298,338.4429252000118,Go,space,0.3331597999786027,Correct,False,False
299,3.0,299,339.4415367000038,Go,space,0.3170579000143334,Correct,False,False
300,3.0,300,340.4407418000046,Go,space,0.2836203999759163,Correct,False,False
301,3.0,301,341.4399459999986,Go,space,0.3007716999854892,Correct,False,False
302,3.0,302,342.43872730000294,No_go,space,0.2840340000111609,Incorrect,False,True
303,3.0,303,343.43830629999866,No_go,,0.0,Correct,False,False
304,3.0,304,344.43730759999016,Go,space,0.3339153999986592,Correct,False,False
305,3.0,305,345.4359834000061,Go,space,0.2841620999970473,Correct,False,False
306,3.0,306,346.4355116999941,Go,space,0.2673475000192411,Correct,False,False
307,3.0,307,347.4346235000121,No_go,space,0.2835064000100828,Incorrect,False,True
308,3.0,308,348.43359619998955,Go,space,0.3168754000216722,Correct,False,False
309,3.0,309,349.4330268999911,Go,space,0.2833310000132769,Correct,False,False
310,3.0,310,350.4314165000105,Go,space,0.3508516000001691,Correct,False,False
311,3.0,311,351.4305371000082,Go,space,0.2335609000001568,Correct,False,False
312,3.0,312,352.4301790999889,Go,space,0.2337886999885086,Correct,False,False
313,3.0,313,353.4290171999892,Go,space,0.2830863000126555,Correct,False,False
314,3.0,314,354.42695339999045,Go,space,0.3342148000083398,Correct,False,False
315,4.0,315,358.89451509999344,Go,space,0.5125933999952395,Correct,False,False
316,4.0,316,359.88950379999005,Go,space,0.3007684999902267,Correct,False,False
317,4.0,317,360.8888208999997,Go,space,0.251160699990578,Correct,False,False
318,4.0,318,361.8869272999873,Go,space,0.3178502999944612,Correct,False,False
319,4.0,319,362.88684690001537,No_go,space,0.2335713999927975,Incorrect,False,True
320,4.0,320,363.88557089999085,Go,space,0.3502387000189628,Correct,False,False
321,4.0,321,364.8851110000105,Go,space,0.3161801999958697,Correct,False,False
322,4.0,322,365.8836158000049,Go,space,0.3334709999908227,Correct,False,False
323,4.0,323,366.88269150001,Go,space,0.3500830999983009,Correct,False,False
324,4.0,324,367.88161270000273,Go,space,0.301039000012679,Correct,False,False
325,4.0,325,368.8810890000023,Go,space,0.3000195000204257,Correct,False,False
326,4.0,326,369.88012650000746,Go,space,0.3354432999913115,Correct,False,False
327,4.0,327,370.8790328000032,Go,space,0.2837336999946274,Correct,False,False
328,4.0,328,371.8773534999928,Go,space,0.3854526999930385,Correct,False,False
329,4.0,329,372.87748749999446,Go,space,0.3166726999916136,Correct,False,False
330,4.0,330,373.8767312999989,No_go,space,0.2994571000162978,Incorrect,False,True
331,4.0,331,374.87508960001287,Go,space,0.2508679000020493,Correct,False,False
332,4.0,332,375.8741966999951,Go,space,0.2842929000034928,Correct,False,False
333,4.0,333,376.8738252999901,Go,space,0.3161823000118602,Correct,False,False
334,4.0,334,377.8720270000049,Go,space,0.3351634000136982,Correct,False,False
335,4.0,335,378.8713563999918,Go,space,0.3010714999982156,Correct,False,False
336,4.0,336,379.8706162000017,Go,space,0.2839242000191007,Correct,False,False
337,4.0,337,380.8696876000031,Go,space,0.3170836000062991,Correct,False,False
338,4.0,338,381.8688120000006,Go,space,0.2837062000180594,Correct,False,False
339,4.0,339,382.8682952999952,No_go,space,0.3167866000148933,Incorrect,False,True
340,4.0,340,383.8669291000115,Go,space,0.301099600008456,Correct,False,False
341,4.0,341,384.8661632000003,Go,space,0.3181488999980502,Correct,False,False
342,4.0,342,385.8649465999915,Go,space,0.3338905999844428,Correct,False,False
343,4.0,343,386.8642775999906,No_go,,0.0,Correct,False,False
344,4.0,344,387.8634901999904,Go,space,0.3170223000051919,Correct,False,False
345,4.0,345,388.8626137000101,Go,space,0.3669736000010744,Correct,False,False
346,4.0,346,389.8606460000156,No_go,space,0.3841135999828111,Incorrect,False,True
347,4.0,347,390.86056110000936,Go,space,0.4184605000191368,Correct,False,False
348,4.0,348,391.8591101999919,Go,space,0.4019454999943264,Correct,False,False
349,4.0,349,392.85898809999344,Go,space,0.4501239999954123,Correct,False,False
350,4.0,350,393.85762359999353,No_go,,0.0,Correct,False,False
351,4.0,351,394.85679670001264,No_go,,0.0,Correct,False,False
352,4.0,352,395.8560268000001,Go,space,0.3666472999902908,Correct,False,False
353,4.0,353,396.8546687999915,Go,space,0.4009519999963231,Correct,False,False
354,4.0,354,397.8535870999913,No_go,,0.0,Correct,False,False
355,4.0,355,398.8528787000105,Go,space,0.3334404000197537,Correct,False,False
356,4.0,356,399.85212480000337,Go,space,0.5162044999888167,Correct,False,False
357,4.0,357,400.8511603999941,No_go,,0.0,Correct,False,False
358,4.0,358,401.8506509000144,Go,space,0.3661658000200987,Correct,False,False
359,4.0,359,402.8491967000009,Go,space,0.5680169000115711,Correct,False,False
360,4.0,360,403.8486511000083,Go,space,0.4515862999833189,Correct,False,False
361,4.0,361,404.8472845999932,Go,space,0.3669862000097055,Correct,False,False
362,4.0,362,405.8464078000106,Go,space,0.368259599985322,Correct,False,False
363,4.0,363,406.8461578999995,No_go,,0.0,Correct,False,False
364,4.0,364,407.8451306000061,Go,space,0.3843800000031478,Correct,False,False
365,4.0,365,408.8438790999935,Go,space,0.4164842000172939,Correct,False,False
366,4.0,366,409.8429160999949,No_go,,0.0,Correct,False,False
367,4.0,367,410.8416798000108,No_go,,0.0,Correct,False,False
368,4.0,368,411.8403058999975,No_go,,0.0,Correct,False,False
369,4.0,369,412.8397835000069,Go,space,0.4173646999988705,Correct,False,False
370,4.0,370,413.8392252000049,No_go,,0.0,Correct,False,False
371,4.0,371,414.83801239999593,Go,space,0.4839442999800667,Correct,False,False
372,4.0,372,415.837068199995,Go,space,0.466631099989172,Correct,False,False
373,4.0,373,416.8363554000098,Go,space,0.3998560000036377,Correct,False,False
374,4.0,374,417.8352134999877,No_go,space,0.3335517999948933,Incorrect,False,True
375,4.0,375,418.8340673999919,Go,space,0.5005997999978717,Correct,False,False
376,4.0,376,419.8330888999917,No_go,,0.0,Correct,False,False
377,4.0,377,420.8332825000107,Go,space,0.5989788000006229,Correct,False,False
378,4.0,378,421.8317539000127,Go,space,0.466755400004331,Correct,False,False
379,4.0,379,422.8305101000005,Go,space,0.3172392999986186,Correct,False,False
380,4.0,380,423.8291443999915,Go,space,0.3838143000029959,Correct,False,False
381,4.0,381,424.8287393999926,Go,space,0.3665817999863066,Correct,False,False
382,4.0,382,425.8272847000044,Go,space,0.3673228999832645,Correct,False,False
383,4.0,383,426.8267560999957,Go,space,0.3674030999827664,Correct,False,False
384,4.0,384,427.8267867999966,Go,space,0.3003031999978702,Correct,False,False
385,4.0,385,428.8250550999946,No_go,space,0.3499212999886367,Incorrect,False,True
386,4.0,386,429.82433790000505,Go,space,0.4828687999979593,Correct,False,False
387,4.0,387,430.82302509999136,Go,space,0.3171609000128228,Correct,False,False
388,4.0,388,431.8216896000085,Go,space,0.3343639000086114,Correct,False,False
389,4.0,389,432.8214819999994,Go,space,0.435030699998606,Correct,False,False
390,4.0,390,433.82009449999896,Go,space,0.3342531999805942,Correct,False,False
391,4.0,391,434.8199827999924,Go,space,0.3159980000054929,Correct,False,False
392,4.0,392,435.8172791000106,Go,space,0.349646600021515,Correct,False,False
393,4.0,393,436.8176208999939,Go,space,0.4503329000144731,Correct,False,False
394,4.0,394,437.81654580001486,Go,space,0.3833699999959208,Correct,False,False
395,4.0,395,438.8157928000146,Go,space,0.2333800000196788,Correct,False,False
396,4.0,396,439.81474999999045,No_go,space,0.2503099000023212,Incorrect,False,True
397,4.0,397,440.8131738000084,Go,space,0.3008123000035994,Correct,False,False
398,4.0,398,441.8128375000088,Go,space,0.4004868000047281,Correct,False,False
399,4.0,399,442.81176479998976,Go,space,0.2669372000091243,Correct,False,False
400,4.0,400,443.8105163,Go,space,0.3335050999885425,Correct,False,False
401,4.0,401,444.81008540000767,Go,space,0.300402099994244,Correct,False,False
402,4.0,402,445.8091366000008,Go,space,0.2672135000175331,Correct,False,False
403,4.0,403,446.8080248000042,Go,space,0.250232499995036,Correct,False,False
404,4.0,404,447.8075353000022,Go,space,0.3504326999827754,Correct,False,False
405,5.0,405,449.4299952000147,No_go,,0.0,Correct,False,False
406,5.0,406,450.4217282999889,Go,space,0.366608999989694,Correct,False,False
407,5.0,407,451.42005939999945,Go,space,0.2997466000088025,Correct,False,False
408,5.0,408,452.4199354000157,Go,space,0.2999791000038385,Correct,False,False
409,5.0,409,453.41817220000667,Go,space,0.3341221000009682,Correct,False,False
410,5.0,410,454.41823609999847,Go,space,0.2826059999933932,Correct,False,False
411,5.0,411,455.41673480000463,Go,space,0.2667622999870218,Correct,False,False
412,5.0,412,456.4156487,Go,space,0.2843995000002906,Correct,False,False
413,5.0,413,457.4150396999903,No_go,space,0.2672002999752294,Incorrect,False,True
414,5.0,414,458.4146665000008,Go,space,0.3162547999818343,Correct,False,False
415,5.0,415,459.41347400000086,Go,space,0.3493523999932222,Correct,False,False
416,5.0,416,460.4117925000028,Go,space,0.4852208000083919,Correct,False,False
417,5.0,417,461.4111600999895,Go,space,0.2839893000200391,Correct,False,False
418,5.0,418,462.4102604000073,Go,space,0.2842878999945242,Correct,False,False
419,5.0,419,463.4094179999957,Go,space,0.2670480000087991,Correct,False,False
420,5.0,420,464.4087299999956,Go,space,0.283714899996994,Correct,False,False
421,5.0,421,465.4072545999952,Go,space,0.2338640000089071,Correct,False,False
422,5.0,422,466.4059139000019,No_go,space,0.2512914999970235,Incorrect,False,True
423,5.0,423,467.4054568000138,Go,space,0.2841115999908652,Correct,False,False
424,5.0,424,468.4045513999881,Go,space,0.2666366999910678,Correct,False,False
425,5.0,425,469.40370870000334,No_go,space,0.3009770000062417,Incorrect,False,True
426,5.0,426,470.4028714000015,No_go,space,0.3332600999856367,Incorrect,False,True
427,5.0,427,471.4018592000066,Go,space,0.4002283000154421,Correct,False,False
428,5.0,428,472.40076250000857,No_go,space,0.3501934000232722,Incorrect,False,True
429,5.0,429,473.400372300006,No_go,,0.0,Correct,False,False
430,5.0,430,474.3993259000126,Go,space,0.2833033000060823,Correct,False,False
431,5.0,431,475.398073599994,Go,space,0.3681877999915741,Correct,False,False
432,5.0,432,476.39716729999054,Go,space,0.3337858000013511,Correct,False,False
433,5.0,433,477.39657660000375,Go,space,0.4005201999971177,Correct,False,False
434,5.0,434,478.39574969999376,Go,space,0.2496974999958183,Correct,False,False
435,5.0,435,479.3951740000048,Go,space,0.332838600006653,Correct,False,False
436,5.0,436,480.3937845999899,Go,space,0.4339897999889217,Correct,False,False
437,5.0,437,481.392806399992,Go,space,0.3331198999949265,Correct,False,False
438,5.0,438,482.3918864000007,Go,space,0.3170248999958858,Correct,False,False
439,5.0,439,483.3904176999931,No_go,space,0.251021000003675,Incorrect,False,True
440,5.0,440,484.38927169999806,Go,space,0.8506743999896571,Correct,False,False
441,5.0,441,485.3889198999968,Go,space,0.5512009999947622,Correct,False,False
442,5.0,442,486.38746220001485,No_go,space,0.2520714999991469,Incorrect,False,True
443,5.0,443,487.38707669998985,Go,space,0.2837265999987721,Correct,False,False
444,5.0,444,488.3860266999982,Go,space,0.3331625999999232,Correct,False,False
445,5.0,445,489.3847564999887,Go,space,0.3003486999950837,Correct,False,False
446,5.0,446,490.3845202999946,Go,space,0.3670576000004075,Correct,False,False
447,5.0,447,491.3830834999972,Go,space,0.3174345000006724,Correct,False,False
448,5.0,448,492.38217150000855,Go,space,0.3173609999939799,Correct,False,False
449,5.0,449,493.38118890000624,Go,space,0.2006094999960623,Correct,False,False
450,5.0,450,494.3801873000048,No_go,space,0.2510416000150144,Incorrect,False,True
451,5.0,451,495.37958109998726,Go,space,0.351366799994139,Correct,False,False
452,5.0,452,496.3788432000146,Go,space,0.3668529000133276,Correct,False,False
453,5.0,453,497.377754599991,Go,space,0.3017888000176754,Correct,False,False
454,5.0,454,498.3767970000045,No_go,space,0.2677377999934833,Incorrect,False,True
455,5.0,455,499.3758686000074,Go,space,0.5830466999905184,Correct,False,False
456,5.0,456,500.374498899997,No_go,space,0.2672573000018019,Incorrect,False,True
457,5.0,457,501.3737017000094,Go,space,0.3839472999970894,Correct,False,False
458,5.0,458,502.37358720001066,Go,space,0.3330659999919589,Correct,False,False
459,5.0,459,503.37196809999296,Go,space,0.2846414000086952,Correct,False,False
460,5.0,460,504.3710269000149,Go,space,0.416901799995685,Correct,False,False
461,5.0,461,505.3699708000058,No_go,space,0.3001834999886341,Incorrect,False,True
462,5.0,462,506.3694139000145,No_go,space,0.2181884000019636,Incorrect,False,True
463,5.0,463,507.3684279000154,Go,space,0.2838040999777149,Correct,False,False
464,5.0,464,508.367953500012,Go,space,0.2682556999789085,Correct,False,False
465,5.0,465,509.3665829999954,Go,space,0.1338467000168748,Correct,False,False
466,5.0,466,510.3653483999951,Go,space,0.3506591999903321,Correct,False,False
467,5.0,467,511.36498350001057,Go,space,0.2661279000167269,Correct,False,False
468,5.0,468,512.364226900012,Go,space,0.2663362000021152,Correct,False,False
469,5.0,469,513.3624508999928,No_go,space,0.233428300009109,Incorrect,False,True
470,5.0,470,514.3612476999988,Go,space,0.384618899988709,Correct,False,False
471,5.0,471,515.3609468000068,No_go,space,0.2667739999887999,Incorrect,False,True
472,5.0,472,516.359853300004,Go,space,0.3167966999753844,Correct,False,False
473,5.0,473,517.358859400003,Go,space,0.2520381000067573,Correct,False,False
474,5.0,474,518.357613900007,Go,space,0.2507480999920517,Correct,False,False
475,5.0,475,519.3565002999967,Go,space,0.2687044000194873,Correct,False,False
476,5.0,476,520.3567520999932,Go,space,0.1836800000164657,Correct,False,False
477,5.0,477,521.3548876999994,No_go,space,0.1508699999831151,Incorrect,False,True
478,5.0,478,522.3546896000043,No_go,space,0.1673662000102922,Incorrect,False,True
479,5.0,479,523.3534312999982,Go,space,0.3337070000125095,Correct,False,False
480,5.0,480,524.3529719999933,Go,space,0.3015559999912511,Correct,False,False
481,5.0,481,525.3515444000077,Go,space,0.267141200019978,Correct,False,False
482,5.0,482,526.3506583000126,Go,space,0.2997387000068556,Correct,False,False
483,5.0,483,527.3493873999978,Go,space,0.2674666999955661,Correct,False,False
484,5.0,484,528.3489034000086,Go,space,0.2665978000150062,Correct,False,False
485,5.0,485,529.3479933000053,Go,space,0.217009300016798,Correct,False,False
486,5.0,486,530.3465055999986,Go,space,0.2841073999879882,Correct,False,False
487,5.0,487,531.3462077000004,Go,space,0.250291800010018,Correct,False,False
488,5.0,488,532.3453759000113,Go,space,0.2509363999997731,Correct,False,False
489,5.0,489,533.3443862000131,Go,space,0.1837502999987919,Correct,False,False
490,5.0,490,534.3430802999937,Go,space,0.3338768000248819,Correct,False,False
491,5.0,491,535.3421522999997,Go,space,0.2672954000008758,Correct,False,False
492,5.0,492,536.3413852000085,Go,space,0.3502789000049233,Correct,False,False
493,5.0,493,537.3409096999967,Go,space,0.2836631999816745,Correct,False,False
494,5.0,494,538.3398546999961,Go,space,0.2997886000084691,Correct,False,False
495,6.0,495,539.935645199992,Go,space,0.7854031999886502,Correct,False,False
496,6.0,496,540.9364805000077,No_go,space,0.3510404000116978,Incorrect,False,True
497,6.0,497,541.936044800008,Go,space,0.3170029000029899,Correct,False,False
498,6.0,498,542.9352114000067,No_go,,0.0,Correct,False,False
499,6.0,499,543.9342388999939,Go,space,0.2337615999858826,Correct,False,False
500,6.0,500,544.9331571999937,Go,space,0.2682493999891449,Correct,False,False
501,6.0,501,545.9319175000128,Go,space,0.2502480999974068,Correct,False,False
502,6.0,502,546.9310614000133,No_go,space,0.3005815999931656,Incorrect,False,True
503,6.0,503,547.9303714999987,No_go,space,0.3005248999979812,Incorrect,False,True
504,6.0,504,548.9297788999975,No_go,,0.0,Correct,False,False
505,6.0,505,549.9283729000017,Go,space,0.4336839999887161,Correct,False,False
506,6.0,506,550.9277091000113,Go,space,0.3036267000134103,Correct,False,False
507,6.0,507,551.9268230999878,Go,space,0.2833989000064321,Correct,False,False
508,6.0,508,552.9259912999987,No_go,space,0.2665555999847129,Incorrect,False,True
509,6.0,509,553.9246586000081,Go,space,0.5013372999965213,Correct,False,False
510,6.0,510,554.9232271999936,Go,space,0.4176902000035625,Correct,False,False
511,6.0,511,555.9228471000097,No_go,,0.0,Correct,False,False
512,6.0,512,556.9218542000162,Go,space,0.3337033000134397,Correct,False,False
513,6.0,513,557.921437699988,Go,space,0.3840509000001475,Correct,False,False
514,6.0,514,558.919916999992,Go,space,0.3838644000061322,Correct,False,False
515,6.0,515,559.9187035000068,No_go,space,0.2840683000104036,Incorrect,False,True
516,6.0,516,560.9183646999882,Go,space,0.3663249999808613,Correct,False,False
517,6.0,517,561.9165836999891,Go,space,0.4677192999806721,Correct,False,False
518,6.0,518,562.9157850999909,No_go,,0.0,Correct,False,False
519,6.0,519,563.9147190999938,Go,space,0.2838797000003978,Correct,False,False
520,6.0,520,564.9146005999937,Go,space,0.3333039999997709,Correct,False,False
521,6.0,521,565.9136361000128,Go,space,0.3671374000259675,Correct,False,False
522,6.0,522,566.9124542000063,Go,space,0.3518397000152617,Correct,False,False
523,6.0,523,567.9113160000124,Go,space,0.3350025000108871,Correct,False,False
524,6.0,524,568.9105930000078,No_go,space,0.3675489999877754,Incorrect,False,True
525,6.0,525,569.9099446999899,Go,space,0.4677738000173121,Correct,False,False
526,6.0,526,570.9090017999988,Go,space,0.3006500999908894,Correct,False,False
527,6.0,527,571.9078479000018,Go,space,0.2006587999931071,Correct,False,False
528,6.0,528,572.9068464000011,Go,space,0.316962400014745,Correct,False,False
529,6.0,529,573.9054137000057,No_go,space,0.2343638000020291,Incorrect,False,True
530,6.0,530,574.9048570999876,Go,space,0.2675657999934628,Correct,False,False
531,6.0,531,575.9039901999931,No_go,,0.0,Correct,False,False
532,6.0,532,576.9036041999934,Go,space,0.3001356999739073,Correct,False,False
533,6.0,533,577.9023615999904,Go,space,0.4007822000130545,Correct,False,False
534,6.0,534,578.9013497999986,Go,space,0.3170072000066284,Correct,False,False
535,6.0,535,579.9006557000102,Go,space,0.3003489999973681,Correct,False,False
536,6.0,536,580.8995870999934,Go,space,0.2676845999958459,Correct,False,False
537,6.0,537,581.8992036000127,Go,space,0.283804600010626,Correct,False,False
538,6.0,538,582.8981052000017,Go,space,0.2663601999811362,Correct,False,False
539,6.0,539,583.8971493999998,Go,space,0.28379839999252,Correct,False,False
540,6.0,540,584.8958003000007,Go,space,0.2665601999906357,Correct,False,False
541,6.0,541,585.8944958999928,No_go,space,0.2178272000164725,Incorrect,False,True
542,6.0,542,586.8937843999884,Go,space,0.3349172000016551,Correct,False,False
543,6.0,543,587.8932185999874,Go,space,0.2670467000280041,Correct,False,False
544,6.0,544,588.8920339999895,Go,space,0.4180523999966681,Correct,False,False
545,6.0,545,589.8910149000003,Go,space,0.3498711000138428,Correct,False,False
546,6.0,546,590.8902552000072,No_go,space,0.3404523000062909,Incorrect,False,True
547,6.0,547,591.8895715000108,No_go,space,0.3001499999954831,Incorrect,False,True
548,6.0,548,592.8888130999985,Go,space,0.3826400999969337,Correct,False,False
549,6.0,549,593.888077999989,Go,space,0.2831310000037774,Correct,False,False
550,6.0,550,594.8864613999904,Go,space,0.2683575999981258,Correct,False,False
551,6.0,551,595.8851630999998,Go,space,0.2687511999974958,Correct,False,False
552,6.0,552,596.884472900012,Go,space,0.2848793999874033,Correct,False,False
553,6.0,553,597.8838080000132,Go,space,0.2505268000240903,Correct,False,False
554,6.0,554,598.8829298999917,Go,space,0.2664120999979786,Correct,False,False
555,6.0,555,599.8823178999883,Go,space,0.299834200006444,Correct,False,False
556,6.0,556,600.880883100006,Go,space,0.3677294999943115,Correct,False,False
557,6.0,557,601.8801076000091,Go,space,0.4837322999956086,Correct,False,False
558,6.0,558,602.8791046999977,Go,space,0.466708899999503,Correct,False,False
559,6.0,559,603.8777252,Go,space,0.2674369000014849,Correct,False,False
560,6.0,560,604.8776965000143,Go,space,0.2516521000070497,Correct,False,False
561,6.0,561,605.8764704999921,Go,space,0.2498916999902576,Correct,False,False
562,6.0,562,606.8745598999958,Go,space,0.251103399990825,Correct,False,False
563,6.0,563,607.8745767000073,Go,space,0.1833986999990884,Correct,False,False
564,6.0,564,608.8738191000011,Go,space,0.200450100004673,Correct,False,False
565,6.0,565,609.8727773000137,Go,space,0.3168586000101641,Correct,False,False
566,6.0,566,610.8714952000009,Go,space,0.3003168999857735,Correct,False,False
567,6.0,567,611.8706891000038,No_go,space,0.2837306000001263,Incorrect,False,True
568,6.0,568,612.8692996999889,No_go,space,0.3345539000001736,Incorrect,False,True
569,6.0,569,613.8687359000032,Go,space,0.5501158000261057,Correct,False,False
570,6.0,570,614.8678647000052,Go,space,0.3005123999901116,Correct,False,False
571,6.0,571,615.867095499998,Go,space,0.2329858999873977,Correct,False,False
572,6.0,572,616.8657992999943,Go,space,0.2505927000020165,Correct,False,False
573,6.0,573,617.8650443000079,Go,space,0.2848208000068553,Correct,False,False
574,6.0,574,618.8692484000057,Go,space,0.1948006000020541,Correct,False,False
575,6.0,575,619.8635318999877,Go,space,0.183478599996306,Correct,False,False
576,6.0,576,620.862558599998,Go,space,0.2335574000026099,Correct,False,False
577,6.0,577,621.8611616000126,Go,space,0.2677068999910261,Correct,False,False
578,6.0,578,622.8605088999902,No_go,space,0.2338158000202383,Incorrect,False,True
579,6.0,579,623.8594184000103,Go,space,0.251529400004074,Correct,False,False
580,6.0,580,624.8583824000088,Go,space,0.3005883000150788,Correct,False,False
581,6.0,581,625.8579896000156,Go,space,0.1167897999985143,Correct,False,False
582,6.0,582,626.8567730000068,Go,space,0.1837699000025168,Correct,False,False
583,6.0,583,627.8558348999941,Go,space,0.2013742999988608,Correct,False,False
584,6.0,584,628.854727900005,Go,space,0.2507703000155743,Correct,False,False
