,block_index,trial,trial_onset(s),stimulus_type,resp_key,rt(s),correct,is_omission,is_comission
0,,0,10.059063999913633,Go,,0.0,Incorrect,True,False
1,,1,12.0684841000475,Go,,0.0,Incorrect,True,False
2,,2,14.084243400022388,No_go,space,0.209068400086835,Incorrect,False,True
3,,3,15.091590399853883,Go,space,0.3512138999067247,Correct,False,False
4,,4,16.10749590001069,Go,space,0.6831975998356938,Correct,False,False
5,,5,17.12399369990453,Go,space,0.5489511000923812,Correct,False,False
6,,6,18.13896949985065,Go,space,0.3673454998061061,Correct,False,False
7,,7,19.15422230004333,Go,space,0.3036841999273747,Correct,False,False
8,,8,20.170314399991184,Go,space,0.2694522999227047,Correct,False,False
9,,9,21.18527209991589,Go,space,0.3843841999769211,Correct,False,False
10,,10,22.201918799895797,Go,space,0.3662829999811947,Correct,False,False
11,,11,23.217385299969465,No_go,space,0.433273599948734,Incorrect,False,True
12,,12,24.23282300005667,Go,space,0.4509417999070138,Correct,False,False
13,,13,25.24945879983716,Go,space,0.4328928999602794,Correct,False,False
14,,14,26.2641261999961,Go,space,0.5328875998966396,Correct,False,False
15,,15,27.28023949987255,Go,space,0.433872900204733,Correct,False,False
16,,16,28.29614180000499,Go,space,0.398889800067991,Correct,False,False
17,,17,29.311197699978948,Go,space,0.5005399000365287,Correct,False,False
18,,18,30.32686639996245,Go,space,0.4333337000571191,Correct,False,False
19,,19,31.34286820003763,No_go,space,0.3828561999835074,Incorrect,False,True
20,,20,32.3591128999833,No_go,space,0.3828807999379933,Incorrect,False,True
21,,21,33.374328800011426,No_go,,0.0,Correct,False,False
22,,22,35.398699299898,Go,space,0.3733045000117272,Correct,False,False
23,,23,36.40540879988112,No_go,space,0.6161527000367641,Incorrect,False,True
24,,24,37.42090409994125,Go,space,0.7831788999028504,Correct,False,False
25,,25,38.43678530002944,Go,space,0.6012622998096049,Correct,False,False
26,,26,39.45193820004352,Go,space,0.5691549000330269,Correct,False,False
27,,27,40.4680786000099,No_go,,0.0,Correct,False,False
28,,28,42.49103709985502,Go,space,0.358282099943608,Correct,False,False
29,,29,43.49892969988287,Go,space,0.4503232999704778,Correct,False,False
30,,30,44.51376720005646,Go,space,0.4834714001044631,Correct,False,False
31,,31,45.52971989987418,Go,space,0.6329795999918133,Correct,False,False
32,,32,46.546397199854255,Go,space,0.51545670023188,Correct,False,False
33,,33,47.56198749993928,Go,space,0.5389854998793453,Correct,False,False
34,,34,48.57705419999547,Go,space,0.5006775001529604,Correct,False,False
35,,35,49.59324409998953,Go,space,0.4332395999226719,Correct,False,False
36,,36,50.60845059994608,Go,space,0.5834695000667125,Correct,False,False
37,,37,51.624379199929535,Go,space,0.4500454000663012,Correct,False,False
38,,38,52.640453699976206,Go,space,0.4830239000730216,Correct,False,False
39,,39,53.65592389996164,Go,space,0.4493480001110583,Correct,False,False
40,,40,54.67084360006265,No_go,,0.0,Correct,False,False
41,,41,56.69339210004546,No_go,,0.0,Correct,False,False
42,,42,58.70966829988174,Go,space,0.4571098999585956,Correct,False,False
43,,43,59.71692689997144,Go,space,0.5347371001262218,Correct,False,False
44,,44,60.73186909989454,Go,space,0.4333796999417245,Correct,False,False
45,1.0,45,72.47179350000806,Go,space,0.599820600124076,Correct,False,False
46,1.0,46,73.47069890005514,No_go,space,0.4862867000047117,Incorrect,False,True
47,1.0,47,74.46999039989896,Go,space,0.45016729994677,Correct,False,False
48,1.0,48,75.46956009999849,Go,space,0.4321746001951396,Correct,False,False
49,1.0,49,76.46787879988551,Go,space,0.3999800998717546,Correct,False,False
50,1.0,50,77.46680839988403,Go,space,0.6834908998571336,Correct,False,False
51,1.0,51,78.46920960000716,Go,space,0.4471563999541104,Correct,False,False
52,1.0,52,79.465326000005,Go,space,0.4330076000187546,Correct,False,False
53,1.0,53,80.46361349988729,Go,space,0.4669071999378502,Correct,False,False
54,1.0,54,81.46181740006432,Go,space,0.5010818999726325,Correct,False,False
55,1.0,55,82.46130939992145,Go,space,0.4341007000766694,Correct,False,False
56,1.0,56,83.46180039993487,Go,space,0.3827828001230955,Correct,False,False
57,1.0,57,84.45964679983445,Go,space,0.4008357001002878,Correct,False,False
58,1.0,58,85.45872669992968,No_go,space,0.383866999996826,Incorrect,False,True
59,1.0,59,86.45761569985189,Go,space,0.400445899926126,Correct,False,False
60,1.0,60,87.45695469994098,Go,space,0.3002677001059055,Correct,False,False
61,1.0,61,88.45619419985451,Go,space,0.3337447000667453,Correct,False,False
62,1.0,62,89.45559979998507,Go,space,0.3682232999708503,Correct,False,False
63,1.0,63,90.45456380001268,Go,space,0.333602000027895,Correct,False,False
64,1.0,64,91.45326899993232,Go,space,0.3357071001082659,Correct,False,False
65,1.0,65,92.45213719992898,Go,space,0.3676066999323666,Correct,False,False
66,1.0,66,93.45128779998048,Go,space,0.4677851998712867,Correct,False,False
67,1.0,67,94.4504517999012,Go,space,0.3840954001061618,Correct,False,False
68,1.0,68,95.44967489992268,Go,space,0.3506753998808563,Correct,False,False
69,1.0,69,96.44884319999257,No_go,space,0.3362195000518113,Incorrect,False,True
70,1.0,70,97.44808889995328,Go,space,0.3833111000712961,Correct,False,False
71,1.0,71,98.4469377999194,No_go,,0.0,Correct,False,False
72,1.0,72,99.4458293998614,No_go,space,0.4161978999618441,Incorrect,False,True
73,1.0,73,100.44489659997636,No_go,,0.0,Correct,False,False
74,1.0,74,101.44428459997287,Go,space,0.4165731000248343,Correct,False,False
75,1.0,75,102.44285549991764,Go,space,0.502751000225544,Correct,False,False
76,1.0,76,103.44251489988528,Go,space,0.4168571999762207,Correct,False,False
77,1.0,77,104.44133419985884,No_go,,0.0,Correct,False,False
78,1.0,78,105.44053899985738,Go,space,0.466908800182864,Correct,False,False
79,1.0,79,106.4395564000588,Go,space,0.483595399884507,Correct,False,False
80,1.0,80,107.43790549994446,Go,space,0.4668554998934269,Correct,False,False
81,1.0,81,108.43706210004166,No_go,,0.0,Correct,False,False
82,1.0,82,109.43729899986648,Go,space,0.516523800091818,Correct,False,False
83,1.0,83,110.43644349998794,No_go,,0.0,Correct,False,False
84,1.0,84,111.43524619983508,Go,space,0.5005365000106394,Correct,False,False
85,1.0,85,112.43394030001946,Go,space,0.4835316999815404,Correct,False,False
86,1.0,86,113.43324329983444,Go,space,0.5329879999626428,Correct,False,False
87,1.0,87,114.43186230002902,No_go,,0.0,Correct,False,False
88,1.0,88,115.43114540004171,Go,space,0.4493217000272125,Correct,False,False
89,1.0,89,116.43076649983414,Go,space,0.4673955000471324,Correct,False,False
90,1.0,90,117.4298479000572,Go,space,0.5347019999753684,Correct,False,False
91,1.0,91,118.4287741999142,Go,space,0.6665658999700099,Correct,False,False
92,1.0,92,119.4280610999558,Go,space,0.5161546999588609,Correct,False,False
93,1.0,93,120.42695059999824,No_go,,0.0,Correct,False,False
94,1.0,94,121.42585600004531,Go,space,0.4668354000896215,Correct,False,False
95,1.0,95,122.42460599984042,Go,space,0.6527133001945913,Correct,False,False
96,1.0,96,123.42323169996962,Go,space,0.5337112999986857,Correct,False,False
97,1.0,97,124.42309399996884,No_go,,0.0,Correct,False,False
98,1.0,98,125.42083969991654,Go,space,0.4178535998798907,Correct,False,False
99,1.0,99,126.4205864998512,Go,space,0.5234928000718355,Correct,False,False
100,1.0,100,127.41983579983936,Go,space,0.617930999957025,Correct,False,False
101,1.0,101,128.41916519985534,Go,space,0.6169340000487864,Correct,False,False
102,1.0,102,129.41802660003304,Go,space,0.500484999967739,Correct,False,False
103,1.0,103,130.41715310001746,Go,space,0.4999369001016021,Correct,False,False
104,1.0,104,131.41620870004408,Go,space,0.5665909999515861,Correct,False,False
105,1.0,105,132.4155001998879,Go,space,0.5485416001174599,Correct,False,False
106,1.0,106,133.4139679998625,Go,space,0.6338845000136644,Correct,False,False
107,1.0,107,134.41380909993313,No_go,,0.0,Correct,False,False
108,1.0,108,135.41262439987622,Go,space,0.5518358000554144,Correct,False,False
109,1.0,109,136.41265489999205,No_go,,0.0,Correct,False,False
110,1.0,110,137.41111180000007,Go,space,0.5531974001787603,Correct,False,False
111,1.0,111,138.40992460004054,Go,space,0.701139299897477,Correct,False,False
112,1.0,112,139.42545880004764,Go,space,0.632653099950403,Correct,False,False
113,1.0,113,140.4247183999978,Go,space,0.5997668001800776,Correct,False,False
114,1.0,114,141.4239087998867,Go,space,0.6501629000995308,Correct,False,False
115,1.0,115,142.42307000001892,Go,space,0.666216199984774,Correct,False,False
116,1.0,116,143.42220079991966,Go,space,0.6356250001117587,Correct,False,False
117,1.0,117,144.4211299000308,Go,space,0.6008131001144648,Correct,False,False
118,1.0,118,145.41962749999948,Go,space,0.56696129986085,Correct,False,False
119,1.0,119,146.4193990000058,Go,space,0.433598899981007,Correct,False,False
120,1.0,120,147.41755390004255,Go,space,0.388688099803403,Correct,False,False
121,1.0,121,148.4172859999817,No_go,,0.0,Correct,False,False
122,1.0,122,149.415957899997,Go,space,0.4351570000872016,Correct,False,False
123,1.0,123,150.41583169996738,No_go,,0.0,Correct,False,False
124,1.0,124,151.41437590005808,Go,space,0.2666082999203354,Correct,False,False
125,1.0,125,152.41330769984052,Go,space,0.5841675000265241,Correct,False,False
126,1.0,126,153.41272579994984,Go,space,0.5664868000894785,Correct,False,False
127,1.0,127,154.41161639988422,Go,space,0.5669125001877546,Correct,False,False
128,1.0,128,155.4110407999251,Go,space,0.5499155998695642,Correct,False,False
129,1.0,129,156.4100366998464,Go,space,0.6498296000063419,Correct,False,False
130,1.0,130,157.40914839995094,Go,space,0.5824803998693824,Correct,False,False
131,1.0,131,158.40794589999132,No_go,,0.0,Correct,False,False
132,1.0,132,159.40644009993412,Go,space,0.4672154998406768,Correct,False,False
133,1.0,133,160.40569309983402,Go,space,0.4027413998264819,Correct,False,False
134,1.0,134,161.405243499903,No_go,,0.0,Correct,False,False
135,2.0,135,187.25735899992287,Go,space,0.6397347999736667,Correct,False,False
136,2.0,136,188.2462734999135,Go,space,0.4179776001255959,Correct,False,False
137,2.0,137,189.2452235999517,Go,space,0.3837309998925775,Correct,False,False
138,2.0,138,190.24447509995665,Go,space,0.3341393999289721,Correct,False,False
139,2.0,139,191.2439190000296,No_go,space,0.3162020000163466,Incorrect,False,True
140,2.0,140,192.2432219998445,Go,space,0.4161650000605732,Correct,False,False
141,2.0,141,193.24242839985527,Go,space,0.4497269000858068,Correct,False,False
142,2.0,142,194.24084759992547,No_go,,0.0,Correct,False,False
143,2.0,143,195.2403367999941,Go,space,0.4500572001561522,Correct,False,False
144,2.0,144,196.2397353998385,Go,space,0.4207792999222874,Correct,False,False
145,2.0,145,197.23814889998172,Go,space,0.4185826999600976,Correct,False,False
146,2.0,146,198.23817280004727,No_go,space,0.3330965999048203,Incorrect,False,True
147,2.0,147,199.2368010999635,Go,space,0.4494689998682588,Correct,False,False
148,2.0,148,200.23580869985744,Go,space,0.522740599932149,Correct,False,False
149,2.0,149,201.23437589989044,Go,space,0.4835180998779833,Correct,False,False
150,2.0,150,202.23393290000968,Go,space,0.5011032000184059,Correct,False,False
151,2.0,151,203.2328305998817,Go,space,0.4836018001660704,Correct,False,False
152,2.0,152,204.23223600001077,Go,space,0.3829918000847101,Correct,False,False
153,2.0,153,205.23148739989847,No_go,,0.0,Correct,False,False
154,2.0,154,206.23023450002077,Go,space,0.4168632000219077,Correct,False,False
155,2.0,155,207.2286904999055,No_go,,0.0,Correct,False,False
156,2.0,156,208.22832019999623,Go,space,0.4167911000549793,Correct,False,False
157,2.0,157,209.22753929998728,Go,space,0.4535083998925984,Correct,False,False
158,2.0,158,210.22615009988655,Go,space,0.3362739000003785,Correct,False,False
159,2.0,159,211.2249720999971,Go,space,0.420406199991703,Correct,False,False
160,2.0,160,212.22447809996083,Go,space,0.4678179000038653,Correct,False,False
161,2.0,161,213.2238310999237,Go,space,0.5328476000577211,Correct,False,False
162,2.0,162,214.2226176999975,Go,space,0.53373509994708,Correct,False,False
163,2.0,163,215.22165109985508,No_go,,0.0,Correct,False,False
164,2.0,164,216.22095629991964,No_go,,0.0,Correct,False,False
165,2.0,165,217.2199277000036,Go,space,0.4176733000203967,Correct,False,False
166,2.0,166,218.21891619986852,No_go,,0.0,Correct,False,False
167,2.0,167,219.21729950001463,Go,space,0.5373364000115544,Correct,False,False
168,2.0,168,220.217057999922,Go,space,0.649375099921599,Correct,False,False
169,2.0,169,221.2161697000265,Go,space,0.5833811999764293,Correct,False,False
170,2.0,170,222.2154256999493,No_go,,0.0,Correct,False,False
171,2.0,171,223.2135039998684,Go,space,0.3013501001987606,Correct,False,False
172,2.0,172,224.2130424999632,Go,space,0.6669419999234378,Correct,False,False
173,2.0,173,225.2123998999596,Go,space,0.533441900042817,Correct,False,False
174,2.0,174,226.21089440002103,Go,space,0.5170898998621851,Correct,False,False
175,2.0,175,227.21079789986837,Go,space,0.5336136999540031,Correct,False,False
176,2.0,176,228.20953790005296,No_go,,0.0,Correct,False,False
177,2.0,177,229.20926439994943,Go,space,0.2864733000751585,Correct,False,False
178,2.0,178,230.20811520004645,Go,space,0.6487655998207629,Correct,False,False
179,2.0,179,231.20637969998643,Go,space,0.6330528999678791,Correct,False,False
180,2.0,180,232.2064161999151,No_go,,0.0,Correct,False,False
181,2.0,181,233.2054691000376,Go,space,0.5163932999130338,Correct,False,False
182,2.0,182,234.20390830002725,No_go,,0.0,Correct,False,False
183,2.0,183,235.2032589998562,No_go,,0.0,Correct,False,False
184,2.0,184,236.20190660003573,Go,space,0.4166830000467598,Correct,False,False
185,2.0,185,237.2007152000442,Go,space,0.6856918998528272,Correct,False,False
186,2.0,186,238.2004010998644,Go,space,0.616462399950251,Correct,False,False
187,2.0,187,239.1989281999413,Go,space,0.5994603999424726,Correct,False,False
188,2.0,188,240.1975020999089,Go,space,0.5512834000401199,Correct,False,False
189,2.0,189,241.197483799886,Go,space,0.4840470000635832,Correct,False,False
190,2.0,190,242.19623759994283,Go,space,0.4676650001201778,Correct,False,False
191,2.0,191,243.19553749985064,Go,space,0.6495588000398129,Correct,False,False
192,2.0,192,244.19472069991755,No_go,space,0.3669863999821245,Incorrect,False,True
193,2.0,193,245.1935876000207,Go,space,0.4665934001095593,Correct,False,False
194,2.0,194,246.1927694999613,No_go,,0.0,Correct,False,False
195,2.0,195,247.1919505998958,Go,space,0.5011415001936257,Correct,False,False
196,2.0,196,248.1909089998808,Go,space,0.4660749000031501,Correct,False,False
197,2.0,197,249.18945209984668,No_go,,0.0,Correct,False,False
198,2.0,198,250.1882380999159,Go,space,0.4337754999287426,Correct,False,False
199,2.0,199,251.18769599986263,Go,space,0.6183335001114756,Correct,False,False
200,2.0,200,252.1869238000363,Go,space,0.4847760000266135,Correct,False,False
201,2.0,201,253.1863181998488,Go,space,0.4333895000163466,Correct,False,False
202,2.0,202,254.1856515998952,Go,space,0.4833251999225467,Correct,False,False
203,2.0,203,255.18392429989763,Go,space,0.4169240000192076,Correct,False,False
204,2.0,204,256.1835262000095,Go,space,0.3671746999025345,Correct,False,False
205,2.0,205,257.18209739984013,Go,space,0.4680730998516083,Correct,False,False
206,2.0,206,258.1811833998654,Go,space,0.3503998999949544,Correct,False,False
207,2.0,207,259.1802935998421,Go,space,0.3506112000904977,Correct,False,False
208,2.0,208,260.1793261000421,Go,space,0.3339223000220954,Correct,False,False
209,2.0,209,261.17875569988973,Go,space,0.5672410000115633,Correct,False,False
210,2.0,210,262.17760979989544,Go,space,0.600134399952367,Correct,False,False
211,2.0,211,263.17681339988485,Go,space,0.6175627000629902,Correct,False,False
212,2.0,212,264.1760225999169,No_go,,0.0,Correct,False,False
213,2.0,213,265.17515500006266,No_go,,0.0,Correct,False,False
214,2.0,214,266.17374340002425,Go,space,0.4675025001633912,Correct,False,False
215,2.0,215,267.17288749990985,Go,space,0.4504624998662621,Correct,False,False
216,2.0,216,268.1721786998678,Go,space,0.3867492000572383,Correct,False,False
217,2.0,217,269.1713815999683,Go,space,0.4164644000120461,Correct,False,False
218,2.0,218,270.1704605000559,Go,space,0.3835556998383254,Correct,False,False
219,2.0,219,271.16965759987943,Go,space,0.3000226998701691,Correct,False,False
220,2.0,220,272.1687952000648,Go,space,0.3833900999743491,Correct,False,False
221,2.0,221,273.170818899991,Go,space,0.4338563000783324,Correct,False,False
222,2.0,222,274.1671269000508,Go,space,0.3504106998443603,Correct,False,False
223,2.0,223,275.1663961999584,Go,space,0.3504193997941911,Correct,False,False
224,2.0,224,276.1646503999364,Go,space,0.3338179998099804,Correct,False,False
225,3.0,225,294.379850700032,Go,space,0.5367056000977755,Correct,False,False
226,3.0,226,295.3799548000097,Go,space,0.3066487000323832,Correct,False,False
227,3.0,227,296.3790458999574,Go,space,0.286752900108695,Correct,False,False
228,3.0,228,297.3777721999213,Go,space,0.2687409999780357,Correct,False,False
229,3.0,229,298.37706759991124,Go,space,0.2840130999684334,Correct,False,False
230,3.0,230,299.37613249989226,Go,space,0.2838791999965906,Correct,False,False
231,3.0,231,300.3753245000262,Go,space,0.2837132001295686,Correct,False,False
232,3.0,232,301.3742795998696,Go,space,0.3195057001430541,Correct,False,False
233,3.0,233,302.37346119992435,Go,space,0.533670499920845,Correct,False,False
234,3.0,234,303.3731416000519,Go,space,0.5830999999307096,Correct,False,False
235,3.0,235,304.371558399871,Go,space,0.6170089999213815,Correct,False,False
236,3.0,236,305.3706594998948,Go,space,0.5515238998923451,Correct,False,False
237,3.0,237,306.3698356000241,Go,space,0.51640440011397,Correct,False,False
238,3.0,238,307.3692103999201,Go,space,0.4830381998326629,Correct,False,False
239,3.0,239,308.36780210002325,Go,space,0.3838243000209331,Correct,False,False
240,3.0,240,309.3664622998331,Go,space,0.4677520000841468,Correct,False,False
241,3.0,241,310.3660242999904,Go,space,0.3834619999397546,Correct,False,False
242,3.0,242,311.3655097000301,No_go,space,0.3828251999802887,Incorrect,False,True
243,3.0,243,312.36401199991815,Go,space,0.3663262000773102,Correct,False,False
244,3.0,244,313.36397079983726,Go,space,0.5847406999673694,Correct,False,False
245,3.0,245,314.362564999843,Go,space,0.5822451000567526,Correct,False,False
246,3.0,246,315.36106169992127,Go,space,0.5020872999448329,Correct,False,False
247,3.0,247,316.36024549999274,Go,space,0.4008900001645088,Correct,False,False
248,3.0,248,317.36015830002725,No_go,,0.0,Correct,False,False
249,3.0,249,318.3588596000336,Go,space,0.567811300046742,Correct,False,False
250,3.0,250,319.35741679999046,Go,space,0.60372249991633,Correct,False,False
251,3.0,251,320.35727969999425,Go,space,0.6325477999635041,Correct,False,False
252,3.0,252,321.3557229000144,Go,space,0.5703520001843572,Correct,False,False
253,3.0,253,322.35523370001465,Go,space,0.5825925001408905,Correct,False,False
254,3.0,254,323.35391369997524,No_go,,0.0,Correct,False,False
255,3.0,255,324.3529542000033,Go,space,0.5505306001286954,Correct,False,False
256,3.0,256,325.3521044999361,No_go,,0.0,Correct,False,False
257,3.0,257,326.35096049983986,Go,space,0.4836252999957651,Correct,False,False
258,3.0,258,327.35015129996464,No_go,,0.0,Correct,False,False
259,3.0,259,328.3495481000282,Go,space,0.5505087999626994,Correct,False,False
260,3.0,260,329.34791269991547,Go,space,0.6339432999957353,Correct,False,False
261,3.0,261,330.3474931998644,Go,space,0.5167936000507325,Correct,False,False
262,3.0,262,331.34620409994386,Go,space,0.5008449999149889,Correct,False,False
263,3.0,263,332.3453976998572,Go,space,0.4665645998902619,Correct,False,False
264,3.0,264,333.3446664998773,Go,space,0.4502564000431448,Correct,False,False
265,3.0,265,334.3435470999684,Go,space,0.5342047999147326,Correct,False,False
266,3.0,266,335.3428624998778,Go,space,0.4336786998901516,Correct,False,False
267,3.0,267,336.3423623999115,Go,space,0.3538134000264108,Correct,False,False
268,3.0,268,337.3410034000408,Go,space,0.5533592000138015,Correct,False,False
269,3.0,269,338.3395155998878,Go,space,0.5342180000152439,Correct,False,False
270,3.0,270,339.33887439989485,No_go,,0.0,Correct,False,False
271,3.0,271,340.338353500003,No_go,,0.0,Correct,False,False
272,3.0,272,341.3368599000387,No_go,,0.0,Correct,False,False
273,3.0,273,342.33614849997684,Go,space,0.4339615001808852,Correct,False,False
274,3.0,274,343.3353011999279,Go,space,0.4502638000994921,Correct,False,False
275,3.0,275,344.3344373998698,No_go,,0.0,Correct,False,False
276,3.0,276,345.3352103000507,Go,space,0.4827586999163031,Correct,False,False
277,3.0,277,346.332583299838,No_go,,0.0,Correct,False,False
278,3.0,278,347.33219849993475,No_go,,0.0,Correct,False,False
279,3.0,279,348.33034550002776,Go,space,0.4337317000608891,Correct,False,False
280,3.0,280,349.3297639999073,Go,space,0.5496769000310451,Correct,False,False
281,3.0,281,350.3288050000556,Go,space,0.5002456000074744,Correct,False,False
282,3.0,282,351.32769169984385,Go,space,0.4010081999003887,Correct,False,False
283,3.0,283,352.32704019988887,Go,space,0.4836021999362856,Correct,False,False
284,3.0,284,353.3254178999923,Go,space,0.3868392000440508,Correct,False,False
285,3.0,285,354.3248174998444,Go,space,0.4004162999335676,Correct,False,False
286,3.0,286,355.3246365999803,Go,space,0.3829151999671012,Correct,False,False
287,3.0,287,356.32289419998415,Go,space,0.3342209002003073,Correct,False,False
288,3.0,288,357.3225137998816,No_go,,0.0,Correct,False,False
289,3.0,289,358.3214000000153,No_go,,0.0,Correct,False,False
290,3.0,290,359.3201832000632,Go,space,0.4535870000254363,Correct,False,False
291,3.0,291,360.31860919995233,Go,space,0.4674033999908715,Correct,False,False
292,3.0,292,361.31812069984153,No_go,,0.0,Correct,False,False
293,3.0,293,362.3177036999259,Go,space,0.4845968999434262,Correct,False,False
294,3.0,294,363.315374400001,Go,space,0.5344012998975813,Correct,False,False
295,3.0,295,364.3152463999577,Go,space,0.6511160000227392,Correct,False,False
296,3.0,296,365.31504959985614,Go,space,0.5661361999809742,Correct,False,False
297,3.0,297,366.31397620006464,No_go,,0.0,Correct,False,False
298,3.0,298,367.3127979999408,Go,space,0.4334476999938488,Correct,False,False
299,3.0,299,368.3118523999583,No_go,,0.0,Correct,False,False
300,3.0,300,369.3107747000177,Go,space,0.5675296999979764,Correct,False,False
301,3.0,301,370.3098941999488,Go,space,0.75367739982903,Correct,False,False
302,3.0,302,371.3097409999464,Go,space,0.76647559995763,Correct,False,False
303,3.0,303,372.3083090998698,Go,space,0.9667116000782698,Correct,False,False
304,3.0,304,373.3074182998389,Go,,0.0,Incorrect,True,False
305,3.0,305,374.3063474998344,Go,space,0.0842451998032629,Correct,False,False
306,3.0,306,375.3058783998713,Go,space,0.2389230001717806,Correct,False,False
307,3.0,307,376.3055763000157,No_go,,0.0,Correct,False,False
308,3.0,308,377.30326539999805,Go,space,0.4502457999624312,Correct,False,False
309,3.0,309,378.3023194998968,Go,space,0.5336919000837952,Correct,False,False
310,3.0,310,379.3014592998661,Go,space,0.5501886000856757,Correct,False,False
311,3.0,311,380.3007896998897,Go,space,0.5887802999932319,Correct,False,False
312,3.0,312,381.3003376000561,Go,space,0.5171701000072062,Correct,False,False
313,3.0,313,382.298925699899,No_go,,0.0,Correct,False,False
314,3.0,314,383.2984934998676,Go,space,0.4329935000278055,Correct,False,False
315,4.0,315,401.9298680999782,Go,space,0.650320100132376,Correct,False,False
316,4.0,316,402.9296360998415,Go,space,0.3498058998957276,Correct,False,False
317,4.0,317,403.9288713999558,Go,space,0.2676754000131041,Correct,False,False
318,4.0,318,404.9273581998423,Go,space,0.3007813999429345,Correct,False,False
319,4.0,319,405.9263052998576,Go,space,0.2501328999642283,Correct,False,False
320,4.0,320,406.9272936999332,Go,space,0.2829070000443607,Correct,False,False
321,4.0,321,407.92437879997306,Go,space,0.2673957999795675,Correct,False,False
322,4.0,322,408.92379310005344,No_go,space,0.303050999995321,Incorrect,False,True
323,4.0,323,409.92268489999697,Go,space,0.5334453999530524,Correct,False,False
324,4.0,324,410.9214633998927,Go,space,0.3341402998194098,Correct,False,False
325,4.0,325,411.9218752998858,No_go,space,0.2996628999244421,Incorrect,False,True
326,4.0,326,412.9198910999112,Go,space,0.352277300087735,Correct,False,False
327,4.0,327,413.91893259994686,Go,space,0.3026310000568628,Correct,False,False
328,4.0,328,414.9176153999288,Go,space,0.5023607998155057,Correct,False,False
329,4.0,329,415.9174110000022,No_go,space,0.3516635000705719,Incorrect,False,True
330,4.0,330,416.9167823998723,No_go,,0.0,Correct,False,False
331,4.0,331,417.91525839990936,Go,space,0.4333748000208288,Correct,False,False
332,4.0,332,418.91446470003575,Go,space,0.4002523999661207,Correct,False,False
333,4.0,333,419.9138652000111,Go,space,0.3994900998659432,Correct,False,False
334,4.0,334,420.91303090006113,Go,space,0.5500636999495327,Correct,False,False
335,4.0,335,421.9123136999551,Go,space,0.5848715999163687,Correct,False,False
336,4.0,336,422.9111996998545,Go,space,0.6325713999103755,Correct,False,False
337,4.0,337,423.9098185999319,Go,space,0.4666035000700503,Correct,False,False
338,4.0,338,424.90871190000325,No_go,space,0.400274199899286,Incorrect,False,True
339,4.0,339,425.9080196998548,No_go,,0.0,Correct,False,False
340,4.0,340,426.90724259987473,No_go,,0.0,Correct,False,False
341,4.0,341,427.9064831000287,Go,space,0.4164795998949557,Correct,False,False
342,4.0,342,428.90524489991367,Go,space,0.353990999981761,Correct,False,False
343,4.0,343,429.9049853999168,Go,space,0.5832533999346197,Correct,False,False
344,4.0,344,430.9030074998736,No_go,,0.0,Correct,False,False
345,4.0,345,431.90231260005385,Go,space,0.5335950998123735,Correct,False,False
346,4.0,346,432.90215320000425,Go,space,0.4996925999876112,Correct,False,False
347,4.0,347,433.9008388998918,Go,space,0.39248300017789,Correct,False,False
348,4.0,348,434.8997839000076,Go,space,0.3172277000267058,Correct,False,False
349,4.0,349,435.8991692999844,Go,space,0.3998232001904398,Correct,False,False
350,4.0,350,436.8966661999002,Go,space,0.3681052001193166,Correct,False,False
351,4.0,351,437.897329499945,Go,space,0.3676175998989492,Correct,False,False
352,4.0,352,438.895849699853,Go,space,0.4842766998335719,Correct,False,False
353,4.0,353,439.8950734999962,Go,space,0.384052800014615,Correct,False,False
354,4.0,354,440.894063899992,Go,space,0.4508117001969367,Correct,False,False
355,4.0,355,441.8951461999677,Go,space,0.3659338001161814,Correct,False,False
356,4.0,356,442.8920728999656,Go,space,0.3498303999658674,Correct,False,False
357,4.0,357,443.89119150000624,Go,space,0.416765599977225,Correct,False,False
358,4.0,358,444.8904752000235,Go,space,0.3999392001423985,Correct,False,False
359,4.0,359,445.8894344998989,Go,space,0.3667003000155091,Correct,False,False
360,4.0,360,446.8890678999014,Go,space,0.3997853000182658,Correct,False,False
361,4.0,361,447.8884676999878,Go,space,0.3661444999743253,Correct,False,False
362,4.0,362,448.88672069995664,No_go,space,0.3352079999167472,Incorrect,False,True
363,4.0,363,449.8857624998782,Go,space,0.3712362998630851,Correct,False,False
364,4.0,364,450.885219699936,Go,space,0.3831948000006377,Correct,False,False
365,4.0,365,451.8840902999509,Go,space,0.5169295999221504,Correct,False,False
366,4.0,366,452.8831621999853,Go,space,0.532844000030309,Correct,False,False
367,4.0,367,453.8822710998356,Go,space,0.5368478999007493,Correct,False,False
368,4.0,368,454.8811103999615,Go,space,0.6999189998023212,Correct,False,False
369,4.0,369,455.8803995000199,Go,,0.0,Incorrect,True,False
370,4.0,370,456.8795298999176,No_go,space,0.2829003999941051,Incorrect,False,True
371,4.0,371,457.8784475000575,Go,space,0.3502735998481512,Correct,False,False
372,4.0,372,458.8774093999528,No_go,,0.0,Correct,False,False
373,4.0,373,459.87622409989126,Go,space,0.5512707000598311,Correct,False,False
374,4.0,374,460.8756583998911,Go,space,0.4503077000845223,Correct,False,False
375,4.0,375,461.8750591999851,Go,space,0.519564799964428,Correct,False,False
376,4.0,376,462.8737993999384,No_go,,0.0,Correct,False,False
377,4.0,377,463.872724799905,Go,space,0.3670165999792516,Correct,False,False
378,4.0,378,464.8721510998439,No_go,,0.0,Correct,False,False
379,4.0,379,465.8711866999511,Go,space,0.2679205001331866,Correct,False,False
380,4.0,380,466.869531000033,Go,space,0.6346619999967515,Correct,False,False
381,4.0,381,467.8683531000279,Go,space,0.6673683000262827,Correct,False,False
382,4.0,382,468.86769309989177,Go,space,0.5848872000351548,Correct,False,False
383,4.0,383,469.8675563000143,No_go,,0.0,Correct,False,False
384,4.0,384,470.8660875998903,Go,space,0.6837573000229895,Correct,False,False
385,4.0,385,471.8656572999898,Go,space,0.4662979000713676,Correct,False,False
386,4.0,386,472.8644260999281,Go,space,0.369539099978283,Correct,False,False
387,4.0,387,473.8634856999852,Go,space,0.3494973999913782,Correct,False,False
388,4.0,388,474.8652550999541,Go,space,0.5010265000164509,Correct,False,False
389,4.0,389,475.8614854998887,Go,space,0.5170493999030441,Correct,False,False
390,4.0,390,476.86378739983775,Go,space,0.4488991999533027,Correct,False,False
391,4.0,391,477.8595362999477,Go,space,0.5165731001179665,Correct,False,False
392,4.0,392,478.8585554000456,Go,space,0.5512926999945194,Correct,False,False
393,4.0,393,479.857912800042,No_go,,0.0,Correct,False,False
394,4.0,394,480.856512399856,Go,space,0.2684933999553323,Correct,False,False
395,4.0,395,481.8558117998764,Go,space,0.4557063998654485,Correct,False,False
396,4.0,396,482.855757100042,Go,space,0.399221200030297,Correct,False,False
397,4.0,397,483.8540779000614,No_go,,0.0,Correct,False,False
398,4.0,398,484.8529409000184,No_go,space,0.2668516000267118,Incorrect,False,True
399,4.0,399,485.8522397999186,Go,space,0.617098999908194,Correct,False,False
400,4.0,400,486.85107459989376,Go,space,0.4007677000481635,Correct,False,False
401,4.0,401,487.8508095999714,Go,space,0.4503732000011951,Correct,False,False
402,4.0,402,488.8496576000471,No_go,,0.0,Correct,False,False
403,4.0,403,489.8488183999434,Go,space,0.48382189986296,Correct,False,False
404,4.0,404,490.8472400000319,Go,space,0.4171274998225271,Correct,False,False
405,5.0,405,510.2659650000278,Go,space,0.4493283999618143,Correct,False,False
406,5.0,406,511.2617263998836,No_go,,0.0,Correct,False,False
407,5.0,407,512.2606349999551,No_go,space,0.2664896999485791,Incorrect,False,True
408,5.0,408,513.2638513999991,Go,space,0.3999691000208258,Correct,False,False
409,5.0,409,514.2588136999402,Go,space,0.3846608998719603,Correct,False,False
410,5.0,410,515.2580512999557,No_go,,0.0,Correct,False,False
411,5.0,411,516.2574626000132,Go,space,0.300438700011,Correct,False,False
412,5.0,412,517.2602576999925,No_go,,0.0,Correct,False,False
413,5.0,413,518.2552630000282,No_go,,0.0,Correct,False,False
414,5.0,414,519.254355999874,Go,space,0.4336343000177294,Correct,False,False
415,5.0,415,520.2543546999805,Go,space,0.4492893998976797,Correct,False,False
416,5.0,416,521.2522940998897,No_go,,0.0,Correct,False,False
417,5.0,417,522.2515946000349,Go,space,0.3855009998660534,Correct,False,False
418,5.0,418,523.2504811000545,Go,space,0.5171193999703974,Correct,False,False
419,5.0,419,524.2489203000441,Go,space,0.3676976000424474,Correct,False,False
420,5.0,420,525.247921800008,Go,space,0.4027555000502616,Correct,False,False
421,5.0,421,526.247583999997,Go,space,0.3518387000076473,Correct,False,False
422,5.0,422,527.2467845999636,Go,space,0.3668297999538481,Correct,False,False
423,5.0,423,528.2465751999989,Go,space,0.4659874001517892,Correct,False,False
424,5.0,424,529.2455197998788,Go,space,0.4828608001116663,Correct,False,False
425,5.0,425,530.2437827999238,Go,space,0.467681200010702,Correct,False,False
426,5.0,426,531.2425871999003,Go,space,0.3838855000212788,Correct,False,False
427,5.0,427,532.2415440999903,Go,space,0.4509839999955147,Correct,False,False
428,5.0,428,533.241311499849,Go,space,0.4840780000668019,Correct,False,False
429,5.0,429,534.2404972000513,No_go,,0.0,Correct,False,False
430,5.0,430,535.239271499915,Go,space,0.4837376000359654,Correct,False,False
431,5.0,431,536.238672999898,No_go,,0.0,Correct,False,False
432,5.0,432,537.2375235999934,Go,space,0.4495895002037287,Correct,False,False
433,5.0,433,538.2369982998352,Go,space,0.5165419999975711,Correct,False,False
434,5.0,434,539.2361510000192,Go,space,0.4995437001343816,Correct,False,False
435,5.0,435,540.2346613998525,Go,space,0.3995287998113781,Correct,False,False
436,5.0,436,541.2329311000649,Go,space,0.3849324001930654,Correct,False,False
437,5.0,437,542.2324607998598,Go,space,0.3841846000868827,Correct,False,False
438,5.0,438,543.2315910998732,Go,space,0.3853754000738263,Correct,False,False
439,5.0,439,544.2310218999628,Go,space,0.4168591999914497,Correct,False,False
440,5.0,440,545.2297195999417,Go,space,0.5508992997929454,Correct,False,False
441,5.0,441,546.2293848998379,Go,space,0.4667563000693917,Correct,False,False
442,5.0,442,547.2287597998511,Go,space,0.3587589999660849,Correct,False,False
443,5.0,443,548.2271787999198,No_go,,0.0,Correct,False,False
444,5.0,444,549.2296883000527,Go,space,0.4142319001257419,Correct,False,False
445,5.0,445,550.2250391000416,No_go,,0.0,Correct,False,False
446,5.0,446,551.2244210999925,No_go,,0.0,Correct,False,False
447,5.0,447,552.2239715999458,Go,space,0.4331861000973731,Correct,False,False
448,5.0,448,553.2223793999292,Go,space,0.4674480999819934,Correct,False,False
449,5.0,449,554.2217379999347,Go,space,0.4178017999511212,Correct,False,False
450,5.0,450,555.2206991000567,Go,space,0.2844559999648481,Correct,False,False
451,5.0,451,556.2201785000507,Go,space,0.2838926999829709,Correct,False,False
452,5.0,452,557.2237726000603,Go,space,0.532357000047341,Correct,False,False
453,5.0,453,558.2177029999439,Go,space,0.500543599948287,Correct,False,False
454,5.0,454,559.2172286000568,Go,space,0.5663252000231296,Correct,False,False
455,5.0,455,560.220336599974,Go,space,0.4476312999613583,Correct,False,False
456,5.0,456,561.2153278000187,Go,space,0.5001151000615209,Correct,False,False
457,5.0,457,562.2148392000236,Go,space,0.5182181000709534,Correct,False,False
458,5.0,458,563.2135290999431,Go,space,0.5602021000813693,Correct,False,False
459,5.0,459,564.2124705000315,Go,space,0.5663181999698281,Correct,False,False
460,5.0,460,565.2110371000599,Go,space,0.6007050999905914,Correct,False,False
461,5.0,461,566.210708099883,Go,space,0.6830764999613166,Correct,False,False
462,5.0,462,567.2095756998751,Go,space,0.9493927999865264,Correct,False,False
463,5.0,463,568.2084275998641,No_go,,0.0,Correct,False,False
464,5.0,464,569.2078892998397,Go,space,0.3836612999439239,Correct,False,False
465,5.0,465,570.2065161999781,Go,space,0.651482000015676,Correct,False,False
466,5.0,466,571.2056493998971,Go,space,0.5335818000603467,Correct,False,False
467,5.0,467,572.2049459998962,Go,space,0.4671577999833971,Correct,False,False
468,5.0,468,573.2035510998685,No_go,,0.0,Correct,False,False
469,5.0,469,574.2029550999869,Go,space,0.4511043999809772,Correct,False,False
470,5.0,470,575.2019903999753,Go,space,0.533203799976036,Correct,False,False
471,5.0,471,576.2016659998335,No_go,,0.0,Correct,False,False
472,5.0,472,577.200141799869,Go,space,0.4835545001551509,Correct,False,False
473,5.0,473,578.1993910998572,Go,space,0.566197199979797,Correct,False,False
474,5.0,474,579.1983113999013,Go,space,0.6329399000387639,Correct,False,False
475,5.0,475,580.1972427000292,Go,space,0.5839322998654097,Correct,False,False
476,5.0,476,581.1960299999919,Go,space,0.5012941998429596,Correct,False,False
477,5.0,477,582.1958111999556,Go,space,0.5338788998778909,Correct,False,False
478,5.0,478,583.1945652998984,Go,space,0.3876823000609875,Correct,False,False
479,5.0,479,584.1931769000366,Go,space,0.5671055000275373,Correct,False,False
480,5.0,480,585.193259099964,No_go,,0.0,Correct,False,False
481,5.0,481,586.1919181998819,Go,space,0.4005787000060081,Correct,False,False
482,5.0,482,587.2243118998595,Go,space,0.5163755000103265,Correct,False,False
483,5.0,483,588.2231912999414,No_go,,0.0,Correct,False,False
484,5.0,484,589.2219984999392,Go,space,0.4163678998593241,Correct,False,False
485,5.0,485,590.2211736000609,No_go,,0.0,Correct,False,False
486,5.0,486,591.2204654999077,Go,space,0.469630500068888,Correct,False,False
487,5.0,487,592.219499199884,Go,space,0.6502040000632405,Correct,False,False
488,5.0,488,593.2186505000573,Go,space,0.6494847000576556,Correct,False,False
489,5.0,489,594.2169955000281,No_go,,0.0,Correct,False,False
490,5.0,490,595.2162923000287,Go,space,0.4833476999774575,Correct,False,False
491,5.0,491,596.2157735000364,Go,space,0.6512572998180985,Correct,False,False
492,5.0,492,597.2148468999658,Go,space,0.5161224000621587,Correct,False,False
493,5.0,493,598.2136270999908,Go,space,0.5866418001241982,Correct,False,False
494,5.0,494,599.2129025999457,Go,space,0.4693909001071006,Correct,False,False
495,6.0,495,614.4142446999904,Go,space,0.483524699928239,Correct,False,False
496,6.0,496,615.4144472000189,Go,space,0.3168792999349534,Correct,False,False
497,6.0,497,616.4132637998555,No_go,space,0.2827449000906199,Incorrect,False,True
498,6.0,498,617.4125967000145,Go,space,0.3335098000243306,Correct,False,False
499,6.0,499,618.4112704000436,No_go,,0.0,Correct,False,False
500,6.0,500,619.4103425999638,Go,space,0.3848642997909337,Correct,False,False
501,6.0,501,620.409205300035,Go,space,0.3164937999099493,Correct,False,False
502,6.0,502,621.4089057999663,No_go,space,0.3328335001133382,Incorrect,False,True
503,6.0,503,622.407306500012,No_go,,0.0,Correct,False,False
504,6.0,504,623.406935499981,Go,space,0.4835020999889821,Correct,False,False
505,6.0,505,624.4060078000184,Go,space,0.4505365998484194,Correct,False,False
506,6.0,506,625.4053615999874,No_go,,0.0,Correct,False,False
507,6.0,507,626.4040097000543,Go,space,0.416907100006938,Correct,False,False
508,6.0,508,627.4028789999429,Go,space,0.4502387000247836,Correct,False,False
509,6.0,509,628.4020884998608,Go,space,0.3404963999055326,Correct,False,False
510,6.0,510,629.4002237999812,Go,space,0.434040900086984,Correct,False,False
511,6.0,511,630.4007939998992,Go,space,0.433479500003159,Correct,False,False
512,6.0,512,631.3993313999381,Go,space,0.4664253999944776,Correct,False,False
513,6.0,513,632.3980642999522,Go,space,0.4340430998709053,Correct,False,False
514,6.0,514,633.3979404999409,Go,space,0.5329585999716073,Correct,False,False
515,6.0,515,634.3960801998619,Go,space,0.6335142999887466,Correct,False,False
516,6.0,516,635.3950350999366,No_go,,0.0,Correct,False,False
517,6.0,517,636.3949660998769,Go,space,0.4828894999809563,Correct,False,False
518,6.0,518,637.3930851998739,Go,space,0.5509492999408394,Correct,False,False
519,6.0,519,638.3929560999386,Go,space,0.4680396998301148,Correct,False,False
520,6.0,520,639.3909870998468,Go,space,0.5507466001436114,Correct,False,False
521,6.0,521,640.3909936998971,No_go,,0.0,Correct,False,False
522,6.0,522,641.3898368000519,Go,space,0.4669508000370115,Correct,False,False
523,6.0,523,642.3888629998546,Go,space,0.6174214999191463,Correct,False,False
524,6.0,524,643.3879958000034,No_go,,0.0,Correct,False,False
525,6.0,525,644.3880332000554,Go,space,0.4336634001228958,Correct,False,False
526,6.0,526,645.3865839999635,Go,space,0.5848351998720318,Correct,False,False
527,6.0,527,646.3851173999719,Go,space,0.5345402997918427,Correct,False,False
528,6.0,528,647.384529300034,Go,space,0.5327731999568641,Correct,False,False
529,6.0,529,648.3837546999566,Go,space,0.5330674999859184,Correct,False,False
530,6.0,530,649.3820766999852,Go,space,0.5662744999863207,Correct,False,False
531,6.0,531,650.3808182000648,No_go,,0.0,Correct,False,False
532,6.0,532,651.3800333999097,Go,space,0.4875665998551994,Correct,False,False
533,6.0,533,652.3795610999223,No_go,,0.0,Correct,False,False
534,6.0,534,653.3787682999391,Go,space,0.270404800074175,Correct,False,False
535,6.0,535,654.3779116999358,Go,space,0.5850488999858499,Correct,False,False
536,6.0,536,655.3763180999085,Go,space,0.583315699826926,Correct,False,False
537,6.0,537,656.3756645999383,Go,space,0.5587756000459194,Correct,False,False
538,6.0,538,657.3744727999438,Go,space,0.5009581001941115,Correct,False,False
539,6.0,539,658.3741275998764,Go,space,0.4493805998936295,Correct,False,False
540,6.0,540,659.3733928999864,Go,space,0.4020640000235289,Correct,False,False
541,6.0,541,660.3723311999347,No_go,,0.0,Correct,False,False
542,6.0,542,661.3712581999134,Go,space,0.4002967001870274,Correct,False,False
543,6.0,543,662.3709319999907,Go,space,0.4672043998725712,Correct,False,False
544,6.0,544,663.3693639999256,Go,space,0.4838953998405486,Correct,False,False
545,6.0,545,664.3715134998783,Go,space,0.5309922001324594,Correct,False,False
546,6.0,546,665.3672362999059,Go,space,0.4349092000629753,Correct,False,False
547,6.0,547,666.3664222999942,Go,space,0.4336708998307585,Correct,False,False
548,6.0,548,667.3657295999583,No_go,,0.0,Correct,False,False
549,6.0,549,668.3649526999798,Go,space,0.3832036000676453,Correct,False,False
550,6.0,550,669.3646314998623,Go,space,0.5662163998931646,Correct,False,False
551,6.0,551,670.3629011998419,Go,space,0.4532532999292016,Correct,False,False
552,6.0,552,671.3619824999478,No_go,,0.0,Correct,False,False
553,6.0,553,672.3608917999081,Go,space,0.5002960001584142,Correct,False,False
554,6.0,554,673.3601901999209,Go,space,0.5198852999601513,Correct,False,False
555,6.0,555,674.3595153999049,Go,space,0.6204546999651939,Correct,False,False
556,6.0,556,675.3582057999447,Go,space,0.5171763999387622,Correct,False,False
557,6.0,557,676.3574504998978,Go,space,0.5335804999340326,Correct,False,False
558,6.0,558,677.3563754998613,Go,space,0.5833962999749929,Correct,False,False
559,6.0,559,678.3547483000439,Go,space,0.5345905998256058,Correct,False,False
560,6.0,560,679.3546192999929,Go,space,0.4677782000508159,Correct,False,False
561,6.0,561,680.3535601999611,Go,space,0.3669598000124097,Correct,False,False
562,6.0,562,681.3530063000508,Go,space,0.3501392998732626,Correct,False,False
563,6.0,563,682.3518997998908,Go,space,0.5166356000117958,Correct,False,False
564,6.0,564,683.3510080999695,Go,space,0.4500504999887198,Correct,False,False
565,6.0,565,684.3496919998433,Go,space,0.4512904998846352,Correct,False,False
566,6.0,566,685.3492004000582,Go,space,0.4531704999972135,Correct,False,False
567,6.0,567,686.3496886000503,No_go,space,0.3821280999109149,Incorrect,False,True
568,6.0,568,687.3471621000208,Go,space,0.5670285001397133,Correct,False,False
569,6.0,569,688.3461767998524,Go,space,0.6161340998951346,Correct,False,False
570,6.0,570,689.345341600012,Go,space,0.6189377000555396,Correct,False,False
571,6.0,571,690.3443084999453,Go,space,0.5177257000468671,Correct,False,False
572,6.0,572,691.3437165999785,No_go,,0.0,Correct,False,False
573,6.0,573,692.3424817998894,Go,space,0.5497838000301272,Correct,False,False
574,6.0,574,693.341354199918,Go,space,0.6331918998621404,Correct,False,False
575,6.0,575,694.341268699849,No_go,,0.0,Correct,False,False
576,6.0,576,695.3398382999003,Go,space,0.5353069000411779,Correct,False,False
577,6.0,577,696.3387758999597,Go,space,0.699593500001356,Correct,False,False
578,6.0,578,697.3377062999643,Go,space,0.6036950999405235,Correct,False,False
579,6.0,579,698.336951599922,Go,space,0.55069369985722,Correct,False,False
580,6.0,580,699.3361285999417,No_go,,0.0,Correct,False,False
581,6.0,581,700.3370341998525,No_go,,0.0,Correct,False,False
582,6.0,582,701.334072599886,Go,space,0.4166990001685917,Correct,False,False
583,6.0,583,702.3330736998469,Go,space,0.5338747000787407,Correct,False,False
584,6.0,584,703.3320070998743,Go,space,0.5516041000373662,Correct,False,False
