,block_index,trial,trial_onset(s),stimulus_type,resp_key,rt(s),correct,is_omission,is_comission
0,,0,19.367698600050065,Go,,0.0,Incorrect,True,False
1,,1,21.35933740017936,Go,space,0.3092048000544309,Correct,False,False
2,,2,22.334740200079978,No_go,space,0.5495714999269694,Incorrect,False,True
3,,3,23.31764400005341,Go,space,0.4657827999908477,Correct,False,False
4,,4,24.299621200188994,Go,,0.0,Incorrect,True,False
5,,5,26.28898820001632,Go,space,0.3257992998696863,Correct,False,False
6,,6,27.26361050014384,Go,space,0.5154267000034451,Correct,False,False
7,,7,28.246232300065454,Go,space,0.3853146999608725,Correct,False,False
8,,8,29.228477800032124,Go,space,0.2998373999726027,Correct,False,False
9,,9,30.21083310013637,Go,space,0.28545180009678,Correct,False,False
10,,10,31.192937400192022,Go,space,0.3002932998351753,Correct,False,False
11,,11,32.1754413000308,Go,space,0.299968000035733,Correct,False,False
12,,12,33.157920400146395,Go,space,0.2842168000061065,Correct,False,False
13,,13,34.140002500033006,Go,space,0.2509086998179555,Correct,False,False
14,,14,35.12334980000742,Go,space,0.2991494000889361,Correct,False,False
15,,15,36.10571260005236,Go,space,0.2667594000231474,Correct,False,False
16,,16,37.08748620003462,No_go,space,0.2339584999717772,Incorrect,False,True
17,,17,38.06894470006228,Go,space,0.3346631000749767,Correct,False,False
18,,18,39.0526959002018,No_go,,0.0,Correct,False,False
19,,19,41.04252280015498,No_go,,0.0,Correct,False,False
20,,20,43.02196270017885,Go,space,0.3438073999714106,Correct,False,False
21,,21,43.99790269997902,No_go,space,0.4036040999926626,Incorrect,False,True
22,,22,44.98053500009701,Go,space,0.6988550000824034,Correct,False,False
23,,23,45.963024800177664,Go,space,0.5670946999453008,Correct,False,False
24,,24,46.9451211001724,Go,space,0.532961499877274,Correct,False,False
25,,25,47.92725820001215,Go,space,0.4180155000649392,Correct,False,False
26,,26,48.90961420000531,Go,space,0.3049274999648332,Correct,False,False
27,,27,49.89232310000807,Go,space,0.3500324001070112,Correct,False,False
28,,28,50.87445380003192,Go,space,0.3339364000130445,Correct,False,False
29,,29,51.85707959998399,No_go,space,0.2832537000067532,Incorrect,False,True
30,,30,52.83922219998203,Go,space,0.3507622999604791,Correct,False,False
31,,31,53.82140550017357,Go,space,0.4840178999584168,Correct,False,False
32,,32,54.8046741001308,Go,space,0.4340733999852091,Correct,False,False
33,,33,55.78702910011634,Go,space,0.365177100058645,Correct,False,False
34,,34,56.77220580005087,Go,space,0.2472818000242114,Correct,False,False
35,,35,57.75410370016471,Go,space,0.3140533999539912,Correct,False,False
36,,36,58.742258300073445,No_go,,0.0,Correct,False,False
37,,37,60.721737100044265,Go,space,0.3106530001387,Correct,False,False
38,,38,61.698126200120896,Go,space,0.4654429999645799,Correct,False,False
39,,39,62.68038150016218,Go,space,0.4337086000014096,Correct,False,False
40,,40,63.66207900014706,Go,space,0.3843400001060217,Correct,False,False
41,,41,64.64407060015947,No_go,,0.0,Correct,False,False
42,,42,66.63264560000971,Go,space,0.3268487998284399,Correct,False,False
43,,43,67.60936500015669,Go,space,0.5656502000056207,Correct,False,False
44,,44,68.5917532001622,No_go,,0.0,Correct,False,False
45,1.0,45,80.51481940015219,Go,space,0.5654291999526322,Correct,False,False
46,1.0,46,81.47902590013109,Go,space,0.3351491999346763,Correct,False,False
47,1.0,47,82.44459110009484,No_go,space,0.2507762000896036,Incorrect,False,True
48,1.0,48,83.41079400014132,Go,space,0.300048700068146,Correct,False,False
49,1.0,49,84.37949960003607,Go,space,0.3302059001289308,Correct,False,False
50,1.0,50,85.34275360009633,Go,space,0.3172083999961614,Correct,False,False
51,1.0,51,86.30810969998129,Go,space,0.3007722001057118,Correct,False,False
52,1.0,52,87.2744380000513,Go,space,0.2493003001436591,Correct,False,False
53,1.0,53,88.23930410016328,Go,space,0.2343157001305371,Correct,False,False
54,1.0,54,89.20530760008842,Go,space,0.23469839990139,Correct,False,False
55,1.0,55,90.17385450005531,Go,space,0.231354699935764,Correct,False,False
56,1.0,56,91.13723530014975,Go,space,0.2500463000033051,Correct,False,False
57,1.0,57,92.10291040013544,Go,space,0.2524935998953879,Correct,False,False
58,1.0,58,93.06832130020484,Go,space,0.2835364998318255,Correct,False,False
59,1.0,59,94.03456200007348,Go,space,0.2502735001035034,Correct,False,False
60,1.0,60,94.99967090017162,Go,space,0.333840100094676,Correct,False,False
61,1.0,61,95.96551950019784,No_go,space,0.2504820001777261,Incorrect,False,True
62,1.0,62,96.93192540016024,Go,space,0.2491206000559032,Correct,False,False
63,1.0,63,97.89760410017334,No_go,,0.0,Correct,False,False
64,1.0,64,98.8632192001678,Go,space,0.3002154999412596,Correct,False,False
65,1.0,65,99.82859040005133,No_go,,0.0,Correct,False,False
66,1.0,66,100.79473970015532,Go,space,0.2496193000115454,Correct,False,False
67,1.0,67,101.76010220008902,Go,space,0.40035460004583,Correct,False,False
68,1.0,68,102.7253049002029,Go,space,0.3672059001401067,Correct,False,False
69,1.0,69,103.69189430004916,Go,space,0.3995958999730646,Correct,False,False
70,1.0,70,104.65791589999571,Go,space,0.5334725000429899,Correct,False,False
71,1.0,71,105.62335710017942,Go,space,0.3835326998960227,Correct,False,False
72,1.0,72,106.58912510005756,Go,space,0.4493624998722225,Correct,False,False
73,1.0,73,107.55514140008016,Go,space,0.3162339997943491,Correct,False,False
74,1.0,74,108.51969099999404,No_go,,0.0,Correct,False,False
75,1.0,75,109.48648130008952,No_go,space,0.2500393998343497,Incorrect,False,True
76,1.0,76,110.45200130017474,No_go,space,0.3169342998880893,Incorrect,False,True
77,1.0,77,111.41843600012362,Go,,0.0,Incorrect,True,False
78,1.0,78,112.38349540019408,Go,space,0.2335374001413583,Correct,False,False
79,1.0,79,113.34913840005174,No_go,,0.0,Correct,False,False
80,1.0,80,114.31554040010089,Go,space,0.3541228999383747,Correct,False,False
81,1.0,81,115.2812777000945,Go,space,0.4494274999015033,Correct,False,False
82,1.0,82,116.2461159999948,Go,space,0.5333340000361204,Correct,False,False
83,1.0,83,117.2128237001598,Go,space,0.4336709000635892,Correct,False,False
84,1.0,84,118.1779515000526,Go,space,0.4008367001079023,Correct,False,False
85,1.0,85,119.14441860001534,Go,space,0.4000064998399466,Correct,False,False
86,1.0,86,120.11002980009653,Go,space,0.3992746998555958,Correct,False,False
87,1.0,87,121.0759233001154,Go,space,0.3670222000218928,Correct,False,False
88,1.0,88,122.0410490001086,Go,space,0.3340584000106901,Correct,False,False
89,1.0,89,123.00738660013305,Go,space,0.4004744000267237,Correct,False,False
90,1.0,90,123.97340160002932,Go,space,0.4499997000675648,Correct,False,False
91,1.0,91,124.93911020015366,Go,space,0.4844084000214934,Correct,False,False
92,1.0,92,125.90529700019395,Go,space,0.533347699791193,Correct,False,False
93,1.0,93,126.86952659999952,Go,space,0.5184033999685198,Correct,False,False
94,1.0,94,127.83614540006964,No_go,,0.0,Correct,False,False
95,1.0,95,128.80178470001556,Go,space,0.4215309000574052,Correct,False,False
96,1.0,96,129.76984840002842,Go,space,0.3310034999158233,Correct,False,False
97,1.0,97,130.73342559998855,Go,space,0.31685799988918,Correct,False,False
98,1.0,98,131.69900130014867,Go,space,0.3174501000903547,Correct,False,False
99,1.0,99,132.66525850002654,Go,space,0.3333039002027362,Correct,False,False
100,1.0,100,133.63067950005643,Go,space,0.3827721998095512,Correct,False,False
101,1.0,101,134.59651409997605,Go,space,0.4663802001159638,Correct,False,False
102,1.0,102,135.56097600003704,Go,space,0.5514322000090033,Correct,False,False
103,1.0,103,136.6101979999803,Go,space,0.5357215998228639,Correct,False,False
104,1.0,104,137.57719220011495,Go,space,0.5661607999354601,Correct,False,False
105,1.0,105,138.5420190000441,Go,space,0.5356493999715894,Correct,False,False
106,1.0,106,139.50823340006173,Go,space,0.5328870001249015,Correct,False,False
107,1.0,107,140.47512180008923,Go,space,0.5660679000429809,Correct,False,False
108,1.0,108,141.44026649999432,Go,space,0.5671010999940336,Correct,False,False
109,1.0,109,142.40573420003057,Go,space,0.6492425999604166,Correct,False,False
110,1.0,110,143.37192420009524,No_go,,0.0,Correct,False,False
111,1.0,111,144.33760290010832,Go,space,0.3827339000999927,Correct,False,False
112,1.0,112,145.30341520020738,No_go,,0.0,Correct,False,False
113,1.0,113,146.26890110014938,Go,space,0.3873813000973314,Correct,False,False
114,1.0,114,147.23450190015137,No_go,,0.0,Correct,False,False
115,1.0,115,148.20035110018216,Go,space,0.3343223000410944,Correct,False,False
116,1.0,116,149.16517180018127,Go,space,0.4520594000350684,Correct,False,False
117,1.0,117,150.13168780016713,Go,space,0.500965200131759,Correct,False,False
118,1.0,118,151.09752000006847,No_go,,0.0,Correct,False,False
119,1.0,119,152.06323630013503,Go,space,0.2499424999114126,Correct,False,False
120,1.0,120,153.02898650011048,Go,,0.0,Incorrect,True,False
121,1.0,121,153.99460680014454,Go,space,0.3679841998964548,Correct,False,False
122,1.0,122,154.96121990005486,Go,space,0.2830676001030952,Correct,False,False
123,1.0,123,155.9266100001987,No_go,,0.0,Correct,False,False
124,1.0,124,156.89294060016982,No_go,,0.0,Correct,False,False
125,1.0,125,157.85814680019394,Go,space,0.3336948999203741,Correct,False,False
126,1.0,126,158.8241611002013,Go,space,0.4154959002044052,Correct,False,False
127,1.0,127,159.78892250009812,Go,space,0.4006960999686271,Correct,False,False
128,1.0,128,160.75515320012346,Go,space,0.4003604999743402,Correct,False,False
129,1.0,129,161.72022750019096,Go,space,0.4518532000947743,Correct,False,False
130,1.0,130,162.6869497001171,No_go,,0.0,Correct,False,False
131,1.0,131,163.65257680020295,Go,space,0.3843692999798804,Correct,False,False
132,1.0,132,164.61832640017383,No_go,space,0.3169736999552697,Incorrect,False,True
133,1.0,133,165.58365250006318,No_go,,0.0,Correct,False,False
134,1.0,134,166.54972300003283,Go,space,0.400118299992755,Correct,False,False
135,2.0,135,176.5235978001729,Go,space,0.5677346000447869,Correct,False,False
136,2.0,136,177.4900176001247,Go,space,0.3833341998979449,Correct,False,False
137,2.0,137,178.45526539999992,Go,space,0.300313200103119,Correct,False,False
138,2.0,138,179.42116240016185,No_go,space,0.2502981000579893,Incorrect,False,True
139,2.0,139,180.3858557001222,Go,space,0.3512832000851631,Correct,False,False
140,2.0,140,181.3533974001184,Go,space,0.334113199962303,Correct,False,False
141,2.0,141,182.31819630018435,Go,space,0.3500840000342577,Correct,False,False
142,2.0,142,183.28461070009507,No_go,,0.0,Correct,False,False
143,2.0,143,184.25017300015315,Go,space,0.3332235999405384,Correct,False,False
144,2.0,144,185.21572119998743,Go,space,0.4002449000254273,Correct,False,False
145,2.0,145,186.1818057000637,No_go,,0.0,Correct,False,False
146,2.0,146,187.1470384001732,Go,space,0.4003455000929534,Correct,False,False
147,2.0,147,188.113023100188,No_go,,0.0,Correct,False,False
148,2.0,148,189.0791623000987,Go,space,0.2496235000435263,Correct,False,False
149,2.0,149,190.0439745001495,Go,space,0.3508546999655664,Correct,False,False
150,2.0,150,191.0109262000769,No_go,,0.0,Correct,False,False
151,2.0,151,191.9760137000121,Go,space,0.3667365000583231,Correct,False,False
152,2.0,152,192.94155160011724,No_go,,0.0,Correct,False,False
153,2.0,153,193.9072426999919,Go,space,0.3334533998277038,Correct,False,False
154,2.0,154,194.87378370016813,Go,space,0.3824939001351595,Correct,False,False
155,2.0,155,195.839264200069,No_go,,0.0,Correct,False,False
156,2.0,156,196.8057643000502,Go,space,0.3659762998577207,Correct,False,False
157,2.0,157,197.77095710020512,Go,space,0.3665761000011116,Correct,False,False
158,2.0,158,198.73590510012585,Go,space,0.3844503001309931,Correct,False,False
159,2.0,159,199.7045061001554,Go,space,0.4481093999929726,Correct,False,False
160,2.0,160,200.6679947001394,Go,space,0.3842060999013483,Correct,False,False
161,2.0,161,201.63410340016708,Go,space,0.3659948999993503,Correct,False,False
162,2.0,162,202.6001186000649,Go,space,0.3500580000691116,Correct,False,False
163,2.0,163,203.5654690000229,Go,space,0.5515384001191705,Correct,False,False
164,2.0,164,204.53111540013924,Go,space,0.3506120999809354,Correct,False,False
165,2.0,165,205.49868330010213,Go,space,0.3150702000129968,Correct,False,False
166,2.0,166,206.46279380004853,No_go,,0.0,Correct,False,False
167,2.0,167,207.42802460002716,Go,space,0.2340753998141735,Correct,False,False
168,2.0,168,208.393714300124,Go,space,0.317029100144282,Correct,False,False
169,2.0,169,209.35937080020085,Go,space,0.3666435999330133,Correct,False,False
170,2.0,170,210.32565910019912,No_go,,0.0,Correct,False,False
171,2.0,171,211.29173180018552,Go,space,0.3018505000509321,Correct,False,False
172,2.0,172,212.25697980006225,Go,space,0.383485300000757,Correct,False,False
173,2.0,173,213.2225238000974,Go,space,0.3002227998804301,Correct,False,False
174,2.0,174,214.18933840002865,Go,space,0.3668976000044495,Correct,False,False
175,2.0,175,215.1543354000896,Go,space,0.5830059999134392,Correct,False,False
176,2.0,176,216.12091720011085,Go,space,0.448979299981147,Correct,False,False
177,2.0,177,217.0864260001108,No_go,,0.0,Correct,False,False
178,2.0,178,218.05176950013265,Go,space,0.3832734001334756,Correct,False,False
179,2.0,179,219.0173285000492,Go,space,0.3338399999774992,Correct,False,False
180,2.0,180,219.9837544001639,Go,space,0.3157718000002205,Correct,False,False
181,2.0,181,220.94901040010157,Go,space,0.3994859999511391,Correct,False,False
182,2.0,182,221.9227014000062,Go,space,0.3920332000125199,Correct,False,False
183,2.0,183,222.8808018001728,Go,space,0.2662023999728262,Correct,False,False
184,2.0,184,223.84642340010032,No_go,,0.0,Correct,False,False
185,2.0,185,224.81305750017052,Go,space,0.2329631000757217,Correct,False,False
186,2.0,186,225.7787417001091,Go,space,0.4999870997853577,Correct,False,False
187,2.0,187,226.74274320015684,Go,space,0.3018048000521958,Correct,False,False
188,2.0,188,227.70969480019997,Go,space,0.300461399834603,Correct,False,False
189,2.0,189,228.6752779001836,Go,space,0.299923000158742,Correct,False,False
190,2.0,190,229.64116710005328,Go,space,0.3002641999628395,Correct,False,False
191,2.0,191,230.60669300006705,Go,space,0.3008458998519927,Correct,False,False
192,2.0,192,231.5725819000509,Go,,0.0,Incorrect,True,False
193,2.0,193,232.53812650009056,Go,space,0.2838523997925222,Correct,False,False
194,2.0,194,233.50401940010488,Go,space,0.2674354999326169,Correct,False,False
195,2.0,195,234.4701619001571,Go,space,0.2498021000064909,Correct,False,False
196,2.0,196,235.43586269998923,No_go,space,0.4172048999462276,Incorrect,False,True
197,2.0,197,236.4019552001264,Go,space,0.3336836001835763,Correct,False,False
198,2.0,198,237.36737060011365,No_go,,0.0,Correct,False,False
199,2.0,199,238.3339792999905,Go,space,0.3160347999073565,Correct,False,False
200,2.0,200,239.298787600128,No_go,,0.0,Correct,False,False
201,2.0,201,240.26359390001744,Go,space,0.2185198999941349,Correct,False,False
202,2.0,202,241.230456400197,Go,space,0.549970000050962,Correct,False,False
203,2.0,203,242.1971627001185,No_go,,0.0,Correct,False,False
204,2.0,204,243.1616036000196,Go,space,0.3207460001576692,Correct,False,False
205,2.0,205,244.1279266001657,Go,space,0.6315508000552654,Correct,False,False
206,2.0,206,245.093518699985,Go,space,0.4504331001080572,Correct,False,False
207,2.0,207,246.05907590012063,Go,space,0.3500675000250339,Correct,False,False
208,2.0,208,247.024954700144,Go,space,0.3684318999294191,Correct,False,False
209,2.0,209,247.99086590018123,Go,space,0.4672589998226613,Correct,False,False
210,2.0,210,248.9575813000556,Go,space,0.4822392999194562,Correct,False,False
211,2.0,211,249.92224540002644,Go,space,0.4334202001336962,Correct,False,False
212,2.0,212,250.88860220019703,Go,space,0.5665512999985367,Correct,False,False
213,2.0,213,251.85441300016828,Go,space,0.4862838999833911,Correct,False,False
214,2.0,214,252.8196119000204,No_go,,0.0,Correct,False,False
215,2.0,215,253.7857830000576,Go,space,0.2829130000900477,Correct,False,False
216,2.0,216,254.7509757000953,No_go,,0.0,Correct,False,False
217,2.0,217,255.71650280011815,Go,space,0.3530202999245375,Correct,False,False
218,2.0,218,256.68243789998814,Go,space,0.3664250001311302,Correct,False,False
219,2.0,219,257.64818330015987,Go,space,0.3865440001245588,Correct,False,False
220,2.0,220,258.6139159000013,Go,space,0.5833282000385225,Correct,False,False
221,2.0,221,259.57990370015614,Go,space,0.932957800105214,Correct,False,False
222,2.0,222,260.5459519000724,Go,space,0.7685004000086337,Correct,False,False
223,2.0,223,261.51186090009287,No_go,,0.0,Correct,False,False
224,2.0,224,262.4781138000544,Go,space,0.2821955000981688,Correct,False,False
225,3.0,225,271.5980167000089,Go,space,0.5206096000038087,Correct,False,False
226,3.0,226,272.5516226000618,Go,space,0.2828142999205738,Correct,False,False
227,3.0,227,273.51639570016414,Go,space,0.1535432999953627,Correct,False,False
228,3.0,228,274.4821866999846,Go,space,0.0837865001522004,Correct,False,False
229,3.0,229,275.44844020018354,Go,space,0.8875747001729906,Correct,False,False
230,3.0,230,276.41399310017005,Go,space,0.94939130009152,Correct,False,False
231,3.0,231,277.37974370014854,No_go,,0.0,Correct,False,False
232,3.0,232,278.34561530011706,No_go,,0.0,Correct,False,False
233,3.0,233,279.3116020001471,Go,space,0.3699711000081152,Correct,False,False
234,3.0,234,280.2769663000945,No_go,,0.0,Correct,False,False
235,3.0,235,281.2429510001093,Go,space,0.2346711000427603,Correct,False,False
236,3.0,236,282.2093945001252,Go,space,0.5822789999656379,Correct,False,False
237,3.0,237,283.1747601001989,Go,space,0.4337230999954045,Correct,False,False
238,3.0,238,284.139730400173,Go,space,0.3836773000657558,Correct,False,False
239,3.0,239,285.1056757001206,Go,space,0.5007521000225097,Correct,False,False
240,3.0,240,286.07215820020065,Go,space,0.5815646999981254,Correct,False,False
241,3.0,241,287.0375599002,Go,space,0.4826791998930275,Correct,False,False
242,3.0,242,288.0031749000773,Go,space,0.4000794999301433,Correct,False,False
243,3.0,243,288.9691751000937,Go,space,0.4529325999319553,Correct,False,False
244,3.0,244,289.93525670003146,Go,space,0.432858900167048,Correct,False,False
245,3.0,245,290.900600500172,Go,space,0.3993778000585735,Correct,False,False
246,3.0,246,291.86598900007084,Go,space,0.3677040999755263,Correct,False,False
247,3.0,247,292.8319105000701,Go,space,0.4502797999884933,Correct,False,False
248,3.0,248,293.8006066000089,Go,space,0.4969734998885542,Correct,False,False
249,3.0,249,294.7642246000469,Go,space,0.3658249001018703,Correct,False,False
250,3.0,250,295.7293177000247,No_go,,0.0,Correct,False,False
251,3.0,251,296.69480890012346,No_go,space,0.2343710002023726,Incorrect,False,True
252,3.0,252,297.6608239000197,Go,space,0.3167171999812126,Correct,False,False
253,3.0,253,298.62573570013046,Go,space,0.553998599993065,Correct,False,False
254,3.0,254,299.5927050001919,Go,space,0.4362943999003619,Correct,False,False
255,3.0,255,300.55796050000936,Go,space,0.3171955998986959,Correct,False,False
256,3.0,256,301.52391840005293,Go,space,0.6517050000838935,Correct,False,False
257,3.0,257,302.4896838001441,No_go,,0.0,Correct,False,False
258,3.0,258,303.45580009999685,Go,space,0.5495680999010801,Correct,False,False
259,3.0,259,304.4207618001383,Go,space,0.4839633000083267,Correct,False,False
260,3.0,260,305.38660189998336,Go,space,0.8169876001775265,Correct,False,False
261,3.0,261,306.3529423000291,Go,space,0.4997684999834746,Correct,False,False
262,3.0,262,307.31888110004365,Go,space,0.333476300118491,Correct,False,False
263,3.0,263,308.2839362001978,No_go,space,0.3184283000882715,Incorrect,False,True
264,3.0,264,309.2497486001812,Go,space,0.4513911998365074,Correct,False,False
265,3.0,265,310.21590539999306,Go,space,0.2999059001449495,Correct,False,False
266,3.0,266,311.18150890013203,Go,space,0.3371505001559853,Correct,False,False
267,3.0,267,312.1462405000348,No_go,,0.0,Correct,False,False
268,3.0,268,313.11323140002787,Go,space,0.3834931999444961,Correct,False,False
269,3.0,269,314.0792155000381,No_go,,0.0,Correct,False,False
270,3.0,270,315.0448899001349,Go,space,0.2345400999765843,Correct,False,False
271,3.0,271,316.01010240009055,Go,space,0.4852793999016285,Correct,False,False
272,3.0,272,316.9769226000644,Go,space,0.5164999000262469,Correct,False,False
273,3.0,273,317.94206200004555,No_go,,0.0,Correct,False,False
274,3.0,274,318.90713599999435,No_go,,0.0,Correct,False,False
275,3.0,275,319.8737916999962,Go,space,0.4497948999051004,Correct,False,False
276,3.0,276,320.83928330009803,Go,space,0.4668444998096674,Correct,False,False
277,3.0,277,321.8051015001256,Go,space,0.4169785999692976,Correct,False,False
278,3.0,278,322.77081730007194,Go,space,0.3835864001885056,Correct,False,False
279,3.0,279,323.7368842000142,Go,space,0.3986176000908017,Correct,False,False
280,3.0,280,324.7025631000288,Go,space,0.5662915001157671,Correct,False,False
281,3.0,281,325.6681551001966,Go,space,0.5835169998463243,Correct,False,False
282,3.0,282,326.63423279998824,Go,space,0.533189799869433,Correct,False,False
283,3.0,283,327.5989864000585,Go,space,0.5679136998951435,Correct,False,False
284,3.0,284,328.56624840013683,Go,space,0.5001035002060235,Correct,False,False
285,3.0,285,329.531813000096,Go,space,0.6497143998276442,Correct,False,False
286,3.0,286,330.4971792001743,Go,space,0.5996183999814093,Correct,False,False
287,3.0,287,331.4631194001995,Go,space,0.7325357999652624,Correct,False,False
288,3.0,288,332.4280980001204,Go,,0.0,Incorrect,True,False
289,3.0,289,333.3938473002054,Go,space,0.2837849999777972,Correct,False,False
290,3.0,290,334.3597957000602,No_go,,0.0,Correct,False,False
291,3.0,291,335.3256750002038,No_go,,0.0,Correct,False,False
292,3.0,292,336.2915107000153,Go,space,0.3505690000019967,Correct,False,False
293,3.0,293,337.2565600001253,Go,space,0.5509904001373798,Correct,False,False
294,3.0,294,338.22310820012353,No_go,,0.0,Correct,False,False
295,3.0,295,339.1881753001362,Go,space,0.6187628000043333,Correct,False,False
296,3.0,296,340.1545669999905,Go,space,0.7161052001174539,Correct,False,False
297,3.0,297,341.1200461999979,Go,space,0.615837600082159,Correct,False,False
298,3.0,298,342.0866219000891,No_go,,0.0,Correct,False,False
299,3.0,299,343.0516692001838,Go,,0.0,Incorrect,True,False
300,3.0,300,344.0170756999869,Go,space,0.4499880999792367,Correct,False,False
301,3.0,301,344.9827106001321,Go,space,0.3513450000900775,Correct,False,False
302,3.0,302,345.9488361000549,Go,space,0.3670467999763787,Correct,False,False
303,3.0,303,346.9151639000047,Go,space,0.469376299995929,Correct,False,False
304,3.0,304,347.8805986000225,Go,space,0.417426599888131,Correct,False,False
305,3.0,305,348.8461610001977,Go,space,0.5833902000449598,Correct,False,False
306,3.0,306,349.81174110015854,Go,space,0.6496981999371201,Correct,False,False
307,3.0,307,350.77748850011267,Go,space,0.5839098999276757,Correct,False,False
308,3.0,308,351.7432579000015,No_go,,0.0,Correct,False,False
309,3.0,309,352.70966030005366,Go,space,0.3334165001288056,Correct,False,False
310,3.0,310,353.675470800139,Go,space,0.3660891000181436,Correct,False,False
311,3.0,311,354.64085780014284,No_go,,0.0,Correct,False,False
312,3.0,312,355.606435400201,Go,space,0.2672790000215173,Correct,False,False
313,3.0,313,356.5725203000475,No_go,,0.0,Correct,False,False
314,3.0,314,357.53864480019547,Go,space,0.2164823999628424,Correct,False,False
315,4.0,315,388.079404800199,No_go,,0.0,Correct,False,False
316,4.0,316,389.0421407001559,No_go,space,0.2395524999592453,Incorrect,False,True
317,4.0,317,390.0068686001469,Go,space,0.3717012000270188,Correct,False,False
318,4.0,318,390.97365820012055,Go,space,0.5825576998759061,Correct,False,False
319,4.0,319,391.939335900126,Go,space,0.3042534000705927,Correct,False,False
320,4.0,320,392.9043112001382,Go,space,0.2510371999815106,Correct,False,False
321,4.0,321,393.8711721000727,Go,space,0.3667184000369161,Correct,False,False
322,4.0,322,394.8365518001374,Go,space,0.2498637000098824,Correct,False,False
323,4.0,323,395.8025549000595,No_go,space,0.317360799992457,Incorrect,False,True
324,4.0,324,396.7668279001955,Go,space,0.2685189999174326,Correct,False,False
325,4.0,325,397.73409990011714,Go,space,0.3329167000483721,Correct,False,False
326,4.0,326,398.69943110016175,Go,space,0.3839637998025864,Correct,False,False
327,4.0,327,399.6653987001628,Go,space,0.4668712001293897,Correct,False,False
328,4.0,328,400.631479700096,Go,space,0.3334469997789711,Correct,False,False
329,4.0,329,401.5971817001701,No_go,,0.0,Correct,False,False
330,4.0,330,402.56298320018686,Go,space,0.2863457000348717,Correct,False,False
331,4.0,331,403.528161900118,Go,space,0.3839537999592721,Correct,False,False
332,4.0,332,404.49434900004417,Go,space,0.3823897000402212,Correct,False,False
333,4.0,333,405.4658719000872,Go,space,0.460687099955976,Correct,False,False
334,4.0,334,406.4253189000301,Go,space,0.4839957999065518,Correct,False,False
335,4.0,335,407.3920381001663,Go,space,0.5322220998350531,Correct,False,False
336,4.0,336,408.357411300065,Go,space,0.6012065000832081,Correct,False,False
337,4.0,337,409.3229924000334,Go,space,0.5841705000493675,Correct,False,False
338,4.0,338,410.28893360006623,Go,space,0.6837355999741703,Correct,False,False
339,4.0,339,411.2555357001256,Go,space,0.766530100023374,Correct,False,False
340,4.0,340,412.2200436000712,Go,,0.0,Incorrect,True,False
341,4.0,341,413.1868067001924,Go,,0.0,Incorrect,True,False
342,4.0,342,414.1520395001862,Go,space,0.6661725000012666,Correct,False,False
343,4.0,343,415.11828280007467,No_go,,0.0,Correct,False,False
344,4.0,344,416.085878000129,Go,space,0.3647910000290721,Correct,False,False
345,4.0,345,417.0498617000412,No_go,,0.0,Correct,False,False
346,4.0,346,418.01551320008,Go,space,0.4998951000161469,Correct,False,False
347,4.0,347,418.98148570000194,Go,space,0.6326107999775559,Correct,False,False
348,4.0,348,419.94673850014806,Go,space,0.583791800076142,Correct,False,False
349,4.0,349,420.9126652001869,Go,space,0.6670233998447657,Correct,False,False
350,4.0,350,421.8776556001976,Go,space,0.6339666999410838,Correct,False,False
351,4.0,351,422.8433580000419,Go,space,0.7507710000500083,Correct,False,False
352,4.0,352,423.8093845001422,Go,space,0.7675397000275552,Correct,False,False
353,4.0,353,424.7759846001864,No_go,,0.0,Correct,False,False
354,4.0,354,425.74520280002616,Go,space,0.5058863998856395,Correct,False,False
355,4.0,355,426.7067172001116,Go,space,0.682501999894157,Correct,False,False
356,4.0,356,427.6755933000241,Go,space,0.7140337999444455,Correct,False,False
357,4.0,357,428.6388040999882,Go,space,0.6992293000221252,Correct,False,False
358,4.0,358,429.60460430011153,Go,space,0.615811700001359,Correct,False,False
359,4.0,359,430.5698166000657,Go,space,0.7330616998951882,Correct,False,False
360,4.0,360,431.5355889999773,No_go,,0.0,Correct,False,False
361,4.0,361,432.5011203000322,Go,space,0.4206349998712539,Correct,False,False
362,4.0,362,433.4708067001775,No_go,,0.0,Correct,False,False
363,4.0,363,434.4333495001774,Go,space,0.4007286999840289,Correct,False,False
364,4.0,364,435.3982949000783,Go,space,0.6336326999589801,Correct,False,False
365,4.0,365,436.36362210009247,No_go,,0.0,Correct,False,False
366,4.0,366,437.3300691000186,No_go,,0.0,Correct,False,False
367,4.0,367,438.2961335000582,Go,space,0.3671713001094758,Correct,False,False
368,4.0,368,439.2627222000156,Go,space,0.4832047000527382,Correct,False,False
369,4.0,369,440.22802610020153,Go,space,0.6155588999390602,Correct,False,False
370,4.0,370,441.19338349998,Go,space,0.6502149000298232,Correct,False,False
371,4.0,371,442.1588622999843,Go,space,0.6016307000536472,Correct,False,False
372,4.0,372,443.1246780999936,Go,space,0.683629099978134,Correct,False,False
373,4.0,373,444.0918500002008,No_go,,0.0,Correct,False,False
374,4.0,374,445.0558776999824,Go,space,0.5505356001667678,Correct,False,False
375,4.0,375,446.0223624000792,No_go,,0.0,Correct,False,False
376,4.0,376,446.9882786001544,Go,space,0.4330958998762071,Correct,False,False
377,4.0,377,447.9535900000483,No_go,,0.0,Correct,False,False
378,4.0,378,448.9194581999909,No_go,space,0.3333227001130581,Incorrect,False,True
379,4.0,379,449.8840367000085,No_go,,0.0,Correct,False,False
380,4.0,380,450.8508754000068,Go,space,0.4171529000159353,Correct,False,False
381,4.0,381,451.8172036001925,Go,space,0.599352799821645,Correct,False,False
382,4.0,382,452.7816179001238,Go,space,0.667786099947989,Correct,False,False
383,4.0,383,453.74760700017214,Go,space,0.7002248999197036,Correct,False,False
384,4.0,384,454.7134471000172,Go,space,0.6840550999622792,Correct,False,False
385,4.0,385,455.6796956001781,Go,space,0.7509223998058587,Correct,False,False
386,4.0,386,456.64578860020265,Go,space,0.7482632999308407,Correct,False,False
387,4.0,387,457.6108545002062,Go,space,0.6170155999716371,Correct,False,False
388,4.0,388,458.576980400132,Go,space,0.9491900000721216,Correct,False,False
389,4.0,389,459.54263310018,Go,space,0.933548100059852,Correct,False,False
390,4.0,390,460.5079797999933,Go,,0.0,Incorrect,True,False
391,4.0,391,461.475398800103,Go,space,0.5987907000817358,Correct,False,False
392,4.0,392,462.4398705000058,Go,space,0.5498374998569489,Correct,False,False
393,4.0,393,463.4057563000824,Go,space,0.6013154999818653,Correct,False,False
394,4.0,394,464.3717462001368,Go,space,0.7190115000121295,Correct,False,False
395,4.0,395,465.3372196999844,Go,space,0.7998941000550985,Correct,False,False
396,4.0,396,466.302481100196,Go,space,0.8705330998636782,Correct,False,False
397,4.0,397,467.2692941999994,Go,,0.0,Incorrect,True,False
398,4.0,398,468.2351362002082,Go,space,0.3828944999258965,Correct,False,False
399,4.0,399,469.2008683001623,Go,space,0.4674689001403749,Correct,False,False
400,4.0,400,470.16702980012633,No_go,,0.0,Correct,False,False
401,4.0,401,471.1320595000871,Go,space,0.3830778000410646,Correct,False,False
402,4.0,402,472.0970692001283,Go,space,0.5671619998756796,Correct,False,False
403,4.0,403,473.06426700018346,No_go,,0.0,Correct,False,False
404,4.0,404,474.0294237001799,Go,space,0.3832189999520778,Correct,False,False
405,5.0,405,482.6147876000032,Go,space,0.6400069000665098,Correct,False,False
406,5.0,406,483.5702844001353,Go,space,0.3668293999508023,Correct,False,False
407,5.0,407,484.53606790001504,Go,space,0.3000760998111218,Correct,False,False
408,5.0,408,485.502039700048,Go,space,0.2824625999201089,Correct,False,False
409,5.0,409,486.4674101001583,Go,space,0.2835419001057744,Correct,False,False
410,5.0,410,487.4328330000863,Go,space,0.421238400042057,Correct,False,False
411,5.0,411,488.3994797000196,Go,space,0.4654478000011295,Correct,False,False
412,5.0,412,489.3649819002021,No_go,,0.0,Correct,False,False
413,5.0,413,490.33099130005576,Go,space,0.3497690998483449,Correct,False,False
414,5.0,414,491.2967984001152,Go,space,0.4483743000309914,Correct,False,False
415,5.0,415,492.26230390020646,Go,space,0.4996032998897135,Correct,False,False
416,5.0,416,493.22776630008593,Go,space,0.5497884000651538,Correct,False,False
417,5.0,417,494.1936331000179,Go,space,0.565801199991256,Correct,False,False
418,5.0,418,495.15921240020543,Go,space,0.8825168001931161,Correct,False,False
419,5.0,419,496.1247994001024,Go,,0.0,Incorrect,True,False
420,5.0,420,497.09550070017576,Go,space,0.3793170999269932,Correct,False,False
421,5.0,421,498.05698880017735,Go,space,0.417517599882558,Correct,False,False
422,5.0,422,499.0223749000579,Go,space,0.6010092000942677,Correct,False,False
423,5.0,423,499.9886760001537,Go,space,0.5520494999364018,Correct,False,False
424,5.0,424,500.9546024000738,Go,space,0.4828786000143736,Correct,False,False
425,5.0,425,501.91996580013074,Go,space,0.4872550000436604,Correct,False,False
426,5.0,426,502.8859302999917,No_go,,0.0,Correct,False,False
427,5.0,427,503.8521948000416,Go,space,0.3662099000066519,Correct,False,False
428,5.0,428,504.81704390002415,Go,space,0.4004160000476986,Correct,False,False
429,5.0,429,505.7834111000411,No_go,,0.0,Correct,False,False
430,5.0,430,506.747824100079,No_go,,0.0,Correct,False,False
431,5.0,431,507.713966100011,No_go,,0.0,Correct,False,False
432,5.0,432,508.6802652000915,No_go,,0.0,Correct,False,False
433,5.0,433,509.64597430010326,Go,space,0.3673857001122087,Correct,False,False
434,5.0,434,510.6115364001598,Go,space,0.4838849999941885,Correct,False,False
435,5.0,435,511.5782396001741,Go,space,0.6155875998083502,Correct,False,False
436,5.0,436,512.5434088001493,Go,space,0.58539819996804,Correct,False,False
437,5.0,437,513.5093208001927,Go,space,0.5669264998286963,Correct,False,False
438,5.0,438,514.4742990001105,No_go,,0.0,Correct,False,False
439,5.0,439,515.4406719000544,Go,space,0.4490299001336097,Correct,False,False
440,5.0,440,516.4057613001205,Go,space,0.6838319001253694,Correct,False,False
441,5.0,441,517.3724431002047,Go,space,0.6495813999790698,Correct,False,False
442,5.0,442,518.3374209001195,Go,,0.0,Incorrect,True,False
443,5.0,443,519.3093477000948,Go,space,0.4440787998028099,Correct,False,False
444,5.0,444,520.2695941000711,Go,space,0.4994961000047624,Correct,False,False
445,5.0,445,521.2347998002078,No_go,,0.0,Correct,False,False
446,5.0,446,522.2045425001998,Go,space,0.3469408999662846,Correct,False,False
447,5.0,447,523.166333500063,Go,space,0.4667321001179516,Correct,False,False
448,5.0,448,524.1330509001855,Go,space,0.4986251001246273,Correct,False,False
449,5.0,449,525.0972911000717,No_go,,0.0,Correct,False,False
450,5.0,450,526.0633090001065,Go,space,0.3836531999986619,Correct,False,False
451,5.0,451,527.0296007001307,Go,space,0.5988940999377519,Correct,False,False
452,5.0,452,527.995604700176,Go,space,0.4993713998701423,Correct,False,False
453,5.0,453,528.961670299992,Go,space,0.4999530001077801,Correct,False,False
454,5.0,454,529.9275997001678,Go,space,0.5330514998640865,Correct,False,False
455,5.0,455,530.8931925999932,Go,space,0.5496175999287516,Correct,False,False
456,5.0,456,531.8584334000479,Go,space,0.5513987999875098,Correct,False,False
457,5.0,457,532.8242887000088,Go,space,0.6338283000513911,Correct,False,False
458,5.0,458,533.7941412001383,Go,space,0.6293406998738647,Correct,False,False
459,5.0,459,534.7566943001002,No_go,,0.0,Correct,False,False
460,5.0,460,535.7213833001442,No_go,,0.0,Correct,False,False
461,5.0,461,536.6870848999824,Go,space,0.4340045000426471,Correct,False,False
462,5.0,462,537.6533894001041,Go,space,0.4823314000386745,Correct,False,False
463,5.0,463,538.6191987001803,Go,space,0.6498992999549955,Correct,False,False
464,5.0,464,539.5852722001728,Go,space,0.5332752000540495,Correct,False,False
465,5.0,465,540.5545881001744,Go,space,0.5003215000033379,Correct,False,False
466,5.0,466,541.5161904999986,Go,space,0.5840538998600096,Correct,False,False
467,5.0,467,542.4818808999844,No_go,,0.0,Correct,False,False
468,5.0,468,543.4474697001278,Go,space,0.3334003000054508,Correct,False,False
469,5.0,469,544.414254100062,Go,space,0.5532808999996632,Correct,False,False
470,5.0,470,545.3793441001326,Go,space,0.570187000092119,Correct,False,False
471,5.0,471,546.3447881001048,Go,space,0.4670406000223011,Correct,False,False
472,5.0,472,547.3105189001653,Go,space,0.5338010999839753,Correct,False,False
473,5.0,473,548.2761723999865,No_go,,0.0,Correct,False,False
474,5.0,474,549.2421262001153,No_go,,0.0,Correct,False,False
475,5.0,475,550.2076363000087,Go,space,0.4174752999097109,Correct,False,False
476,5.0,476,551.174275000114,Go,space,0.4487147000618279,Correct,False,False
477,5.0,477,552.1397761001717,Go,space,0.7032770998775959,Correct,False,False
478,5.0,478,553.1053214999847,Go,space,0.6219929000362754,Correct,False,False
479,5.0,479,554.071545700077,Go,space,0.6356144000310451,Correct,False,False
480,5.0,480,555.036263700109,No_go,,0.0,Correct,False,False
481,5.0,481,556.0030228001997,Go,space,0.316841599997133,Correct,False,False
482,5.0,482,556.9688441001344,Go,space,0.5664266999810934,Correct,False,False
483,5.0,483,557.9344694002066,No_go,,0.0,Correct,False,False
484,5.0,484,558.900066500064,Go,space,0.3501702998764813,Correct,False,False
485,5.0,485,559.8655606000684,No_go,,0.0,Correct,False,False
486,5.0,486,560.8304844000377,Go,space,0.3365638998802751,Correct,False,False
487,5.0,487,561.7970414999872,No_go,,0.0,Correct,False,False
488,5.0,488,562.7629661001265,Go,space,0.4005929999984801,Correct,False,False
489,5.0,489,563.7284147001337,Go,space,0.5850533999036998,Correct,False,False
490,5.0,490,564.6949208001606,Go,space,0.4485945999622345,Correct,False,False
491,5.0,491,565.6632117000408,Go,space,0.4323559999465942,Correct,False,False
492,5.0,492,566.625293900026,Go,,0.0,Incorrect,True,False
493,5.0,493,567.5924939999823,Go,space,0.6662139999680221,Correct,False,False
494,5.0,494,568.5579258999787,Go,space,0.4498870000243187,Correct,False,False
495,6.0,495,576.5853584001306,Go,space,0.6480861001182348,Correct,False,False
496,6.0,496,577.5493171000853,Go,space,0.3993139998055994,Correct,False,False
497,6.0,497,578.5153326999862,Go,space,0.3169931001029908,Correct,False,False
498,6.0,498,579.4803104000166,No_go,space,0.2675966001115739,Incorrect,False,True
499,6.0,499,580.4459189001936,Go,space,0.2669136999174952,Correct,False,False
500,6.0,500,581.4123921000864,Go,space,0.2664669998921454,Correct,False,False
501,6.0,501,582.3780218001921,No_go,,0.0,Correct,False,False
502,6.0,502,583.3442367000971,Go,space,0.3696211001370102,Correct,False,False
503,6.0,503,584.3098486000672,Go,space,0.333780099870637,Correct,False,False
504,6.0,504,585.2753088001627,Go,space,0.3671397999860346,Correct,False,False
505,6.0,505,586.2409500000067,Go,space,0.3670395000372082,Correct,False,False
506,6.0,506,587.2064738001209,Go,space,0.3674673000350594,Correct,False,False
507,6.0,507,588.1726858001202,Go,space,0.3667454000096768,Correct,False,False
508,6.0,508,589.1385109000839,No_go,space,0.35089570004493,Incorrect,False,True
509,6.0,509,590.1036608000286,Go,space,0.3172758999280631,Correct,False,False
510,6.0,510,591.0699667001609,Go,space,0.5237936000339687,Correct,False,False
511,6.0,511,592.0343546001241,Go,space,0.5509331000503153,Correct,False,False
512,6.0,512,593.0021534999833,No_go,,0.0,Correct,False,False
513,6.0,513,593.967528300127,Go,space,0.7330016999039799,Correct,False,False
514,6.0,514,594.9328227001242,Go,space,0.5578395000193268,Correct,False,False
515,6.0,515,595.9324862000067,Go,space,0.4497542001772672,Correct,False,False
516,6.0,516,596.8978550001048,Go,space,0.3499855999834835,Correct,False,False
517,6.0,517,597.8631475002039,No_go,,0.0,Correct,False,False
518,6.0,518,598.8291621000972,Go,space,0.3839442001190036,Correct,False,False
519,6.0,519,599.7946187001653,No_go,,0.0,Correct,False,False
520,6.0,520,600.760749100009,Go,space,0.3662003001663834,Correct,False,False
521,6.0,521,601.7258222000673,No_go,,0.0,Correct,False,False
522,6.0,522,602.692407600116,Go,space,0.7336337000597268,Correct,False,False
523,6.0,523,603.6576841000933,Go,space,0.519342599902302,Correct,False,False
524,6.0,524,604.6266208000015,Go,space,0.314486299874261,Correct,False,False
525,6.0,525,605.5901572001167,Go,space,0.4331090000923723,Correct,False,False
526,6.0,526,606.5553787001409,Go,space,0.3177604000084102,Correct,False,False
527,6.0,527,607.5214129001833,Go,space,0.4000996998511255,Correct,False,False
528,6.0,528,608.4862909000367,Go,space,0.6332884000148624,Correct,False,False
529,6.0,529,609.452461700188,Go,space,0.5326839999761432,Correct,False,False
530,6.0,530,610.4181507001631,Go,space,0.4498101000208407,Correct,False,False
531,6.0,531,611.3842922002077,Go,space,0.5165484000463039,Correct,False,False
532,6.0,532,612.3507483000867,Go,space,0.4840812000911683,Correct,False,False
533,6.0,533,613.3158830001485,Go,space,0.4162902999669313,Correct,False,False
534,6.0,534,614.2825772999786,Go,space,0.2830231999978423,Correct,False,False
535,6.0,535,615.2473938001785,No_go,,0.0,Correct,False,False
536,6.0,536,616.2164203000721,Go,space,0.3298992998898029,Correct,False,False
537,6.0,537,617.1794064000715,No_go,,0.0,Correct,False,False
538,6.0,538,618.1448850000743,No_go,,0.0,Correct,False,False
539,6.0,539,619.1100987000391,Go,space,0.385881399968639,Correct,False,False
540,6.0,540,620.0761477001943,Go,space,0.43222719989717,Correct,False,False
541,6.0,541,621.0417653000914,Go,space,0.4560879999771714,Correct,False,False
542,6.0,542,622.0086629001889,Go,space,0.3991008999291807,Correct,False,False
543,6.0,543,622.9730928000063,Go,space,0.4004969000816345,Correct,False,False
544,6.0,544,623.9396234001033,Go,space,0.415832000086084,Correct,False,False
545,6.0,545,624.9045212999918,No_go,,0.0,Correct,False,False
546,6.0,546,625.8707697000355,Go,space,0.3028722000308335,Correct,False,False
547,6.0,547,626.836179099977,Go,space,0.3512057000771165,Correct,False,False
548,6.0,548,627.8021979001351,Go,space,0.6833512999583036,Correct,False,False
549,6.0,549,628.7678368000779,No_go,,0.0,Correct,False,False
550,6.0,550,629.7334129000083,Go,space,0.2701415000483393,Correct,False,False
551,6.0,551,630.6994702999946,Go,space,0.3160290000960231,Correct,False,False
552,6.0,552,631.66520830011,Go,space,0.3027961000334471,Correct,False,False
553,6.0,553,632.6332364000846,Go,space,0.4147950999904424,Correct,False,False
554,6.0,554,633.5972158000804,Go,space,0.2997024001087993,Correct,False,False
555,6.0,555,634.5636786001269,Go,space,0.2656978000886738,Correct,False,False
556,6.0,556,635.5273125001695,Go,space,0.3514179999474436,Correct,False,False
557,6.0,557,636.4943001000211,Go,space,0.3331784000620246,Correct,False,False
558,6.0,558,637.4601257999893,Go,space,0.3336517999414354,Correct,False,False
559,6.0,559,638.4253155000042,Go,space,0.32191489986144,Correct,False,False
560,6.0,560,639.3920335001312,No_go,space,0.3171602999791503,Incorrect,False,True
561,6.0,561,640.3571482000407,Go,space,0.2661292999982834,Correct,False,False
562,6.0,562,641.3232035001274,Go,space,0.4340425999835133,Correct,False,False
563,6.0,563,642.2893562000245,No_go,,0.0,Correct,False,False
564,6.0,564,643.2539553001989,Go,space,0.303822600049898,Correct,False,False
565,6.0,565,644.2209152001888,Go,space,0.6831704000942409,Correct,False,False
566,6.0,566,645.1862185001373,Go,space,0.4661834000144154,Correct,False,False
567,6.0,567,646.1509351001587,Go,space,0.4509697998873889,Correct,False,False
568,6.0,568,647.1181189001072,No_go,,0.0,Correct,False,False
569,6.0,569,648.0831136000343,Go,space,0.3837282001040876,Correct,False,False
570,6.0,570,649.0493977000006,Go,space,0.5828740000724792,Correct,False,False
571,6.0,571,650.0147534001153,Go,space,0.5520126998890191,Correct,False,False
572,6.0,572,650.9809501001146,Go,space,0.4998007998801768,Correct,False,False
573,6.0,573,651.9463094000239,Go,space,0.7828667999710888,Correct,False,False
574,6.0,574,652.9114975000266,Go,space,0.5340006998740137,Correct,False,False
575,6.0,575,653.8781775000971,Go,space,0.4663406000472605,Correct,False,False
576,6.0,576,654.8437352001201,Go,space,0.4198402999900281,Correct,False,False
577,6.0,577,655.8095038000029,No_go,,0.0,Correct,False,False
578,6.0,578,656.7754512000829,Go,space,0.2495246999897062,Correct,False,False
579,6.0,579,657.7411156001035,No_go,space,0.3502517999149859,Incorrect,False,True
580,6.0,580,658.7071432000957,Go,space,0.3669404000975191,Correct,False,False
581,6.0,581,659.6725796000101,Go,space,0.3016413999721408,Correct,False,False
582,6.0,582,660.640130800195,Go,space,0.2986393000464886,Correct,False,False
583,6.0,583,661.6043699001893,Go,space,0.4337677001021802,Correct,False,False
584,6.0,584,662.5702254001517,No_go,,0.0,Correct,False,False
