,block_index,trial,trial_onset(s),stimulus_type,resp_key,rt(s),correct,is_omission,is_comission
0,,0,20.125138100003824,Go,,0.0,Incorrect,True,False
1,,1,22.105586300007417,No_go,space,0.3259465000010095,Incorrect,False,True
2,,2,23.08144480000192,Go,space,0.5000073999981396,Correct,False,False
3,,3,24.063507600003504,Go,,0.0,Incorrect,True,False
4,,4,26.052728800001205,Go,,0.0,Incorrect,True,False
5,,5,28.033652700003582,Go,space,0.3760482000070624,Correct,False,False
6,,6,29.008490599997454,Go,space,0.4168112000043038,Correct,False,False
7,,7,29.991586500007543,No_go,space,0.382821100007277,Incorrect,False,True
8,,8,30.97366240000701,Go,space,0.3838697000028332,Correct,False,False
9,,9,31.95562730000529,Go,space,0.3837842999928398,Correct,False,False
10,,10,32.939943300007144,Go,space,0.3488269999943441,Correct,False,False
11,,11,33.92084489999979,Go,space,0.3655190999998012,Correct,False,False
12,,12,34.903091900006984,Go,space,0.3008382999978494,Correct,False,False
13,,13,35.885607900010655,Go,space,0.3498888000031002,Correct,False,False
14,,14,36.86817359999986,Go,space,0.2835000000050058,Correct,False,False
15,,15,37.85057609999785,Go,space,0.3831858000048669,Correct,False,False
16,,16,38.83327440000721,Go,space,0.2829399000038393,Correct,False,False
17,,17,39.81500870001037,Go,space,0.2509233000018867,Correct,False,False
18,,18,40.79723789999844,Go,space,0.2678539999906206,Correct,False,False
19,,19,41.779784900005325,Go,space,0.2707621000008657,Correct,False,False
20,,20,42.761932699999306,Go,space,0.2837126000085845,Correct,False,False
21,,21,43.744977000009385,No_go,space,0.3667437999974936,Incorrect,False,True
22,,22,44.727372100009234,Go,space,0.4171322000038344,Correct,False,False
23,,23,45.71003800000472,No_go,space,0.3334939999913331,Incorrect,False,True
24,,24,46.692465800006175,Go,,0.0,Incorrect,True,False
25,,25,48.68275770000764,Go,space,0.274601299999631,Correct,False,False
26,,26,49.6558209000068,No_go,space,0.3340301999996882,Incorrect,False,True
27,,27,50.63831460000074,No_go,space,0.351006500000949,Incorrect,False,True
28,,28,51.62141770000744,Go,space,0.3662782000028528,Correct,False,False
29,,29,52.60376150000957,No_go,,0.0,Correct,False,False
30,,30,54.59244000000763,Go,space,0.3760747000051196,Correct,False,False
31,,31,55.56748250000237,Go,space,0.3832036999956472,Correct,False,False
32,,32,56.55009520000021,Go,space,0.3842025000049034,Correct,False,False
33,,33,57.531780300007085,Go,space,0.4007156000006944,Correct,False,False
34,,34,58.514525400009006,Go,space,0.316913000002387,Correct,False,False
35,,35,59.497176300006686,No_go,,0.0,Correct,False,False
36,,36,61.48452270000416,Go,,0.0,Incorrect,True,False
37,,37,63.468155100010335,Go,space,0.3261799999891082,Correct,False,False
38,,38,64.44290940000792,Go,space,0.3845055999991018,Correct,False,False
39,,39,65.42481009999756,Go,space,0.3846352999971714,Correct,False,False
40,,40,66.40749260000302,No_go,space,0.3990508000133559,Incorrect,False,True
41,,41,67.38965969999845,Go,,0.0,Incorrect,True,False
42,,42,69.3793946000078,Go,space,0.3426164999982575,Correct,False,False
43,,43,70.35368140001083,Go,,0.0,Incorrect,True,False
44,,44,72.3423741000006,Go,space,0.359308900005999,Correct,False,False
45,1.0,45,88.28895790000388,Go,,0.0,Incorrect,True,False
46,1.0,46,89.25250349999988,Go,space,0.383485300000757,Correct,False,False
47,1.0,47,90.21794790000422,Go,space,0.2506646999972872,Correct,False,False
48,1.0,48,91.18383619999804,Go,space,0.3169267000048421,Correct,False,False
49,1.0,49,92.14972630000555,Go,space,0.300378300002194,Correct,False,False
50,1.0,50,93.11524710000958,Go,space,0.2673612999933539,Correct,False,False
51,1.0,51,94.08102280000458,Go,space,0.25124379999761,Correct,False,False
52,1.0,52,95.04748639999887,Go,space,0.4335849000053713,Correct,False,False
53,1.0,53,96.0126167999988,No_go,space,0.3506420999910915,Incorrect,False,True
54,1.0,54,96.97876559999712,No_go,space,0.3330586999945808,Incorrect,False,True
55,1.0,55,97.9444203000021,Go,space,0.3842667999997502,Correct,False,False
56,1.0,56,98.9102683000092,Go,space,0.4170779999985825,Correct,False,False
57,1.0,57,99.87588970000796,Go,space,0.4338875999965239,Correct,False,False
58,1.0,58,100.84200530000088,Go,space,0.3336644999944838,Correct,False,False
59,1.0,59,101.8077612000052,Go,space,0.3343715000082738,Correct,False,False
60,1.0,60,102.77396269999736,Go,space,0.332902499998454,Correct,False,False
61,1.0,61,103.73943080000754,No_go,,0.0,Correct,False,False
62,1.0,62,104.70517870000911,Go,space,0.3335369000124046,Correct,False,False
63,1.0,63,105.67076220001036,No_go,,0.0,Correct,False,False
64,1.0,64,106.63676629999829,No_go,space,0.3501123000023654,Incorrect,False,True
65,1.0,65,107.60235490000925,Go,,0.0,Incorrect,True,False
66,1.0,66,108.56800590000056,Go,space,0.3669102999992901,Correct,False,False
67,1.0,67,109.53442180001002,No_go,,0.0,Correct,False,False
68,1.0,68,110.50119670000277,Go,space,0.3652009999932488,Correct,False,False
69,1.0,69,111.46579410000412,No_go,,0.0,Correct,False,False
70,1.0,70,112.4324348000082,Go,space,0.3323310999985551,Correct,False,False
71,1.0,71,113.39659530000064,Go,,0.0,Incorrect,True,False
72,1.0,72,114.36266540001088,Go,space,0.3677102999936323,Correct,False,False
73,1.0,73,115.32836240000324,Go,space,0.4007316999923205,Correct,False,False
74,1.0,74,116.29444160001005,No_go,,0.0,Correct,False,False
75,1.0,75,117.26021819999733,Go,space,0.3498934999952325,Correct,False,False
76,1.0,76,118.2252479000017,Go,space,0.3340239000099245,Correct,False,False
77,1.0,77,119.1912452999968,Go,space,0.3839674999908311,Correct,False,False
78,1.0,78,120.157194600004,No_go,space,0.350635599999805,Incorrect,False,True
79,1.0,79,121.12286560000211,Go,,0.0,Incorrect,True,False
80,1.0,80,122.08859070000472,Go,space,0.3049852999974973,Correct,False,False
81,1.0,81,123.05440439999802,No_go,,0.0,Correct,False,False
82,1.0,82,124.02010439999869,Go,space,0.2338767000037478,Correct,False,False
83,1.0,83,124.98627790001046,No_go,space,0.3514636000036262,Incorrect,False,True
84,1.0,84,125.9518653999985,No_go,,0.0,Correct,False,False
85,1.0,85,126.91733330000716,Go,space,0.35071009999956,Correct,False,False
86,1.0,86,127.88334929999836,Go,space,0.3667530999955488,Correct,False,False
87,1.0,87,128.84894560000976,No_go,,0.0,Correct,False,False
88,1.0,88,129.8148375000019,Go,space,0.3334790000080829,Correct,False,False
89,1.0,89,130.78066810000746,Go,space,0.4501009999949019,Correct,False,False
90,1.0,90,131.7464389000088,Go,space,0.3839696999930311,Correct,False,False
91,1.0,91,132.71207590000995,Go,space,0.4006412000017008,Correct,False,False
92,1.0,92,133.67782160000934,Go,space,0.3503270999935921,Correct,False,False
93,1.0,93,134.64418899999873,Go,space,0.3499149999988731,Correct,False,False
94,1.0,94,135.60934399999678,Go,space,0.3837268000061158,Correct,False,False
95,1.0,95,136.5753926000034,Go,space,0.408721500003594,Correct,False,False
96,1.0,96,137.54122220000136,Go,space,0.4167100000049686,Correct,False,False
97,1.0,97,138.50636870000744,Go,space,0.3685779999941587,Correct,False,False
98,1.0,98,139.47265520000656,Go,space,0.3339332999894395,Correct,False,False
99,1.0,99,140.4380025999999,Go,space,0.43394139999873,Correct,False,False
100,1.0,100,141.40420590000576,No_go,,0.0,Correct,False,False
101,1.0,101,142.3699920000072,Go,space,0.3342188999959035,Correct,False,False
102,1.0,102,143.33561100000225,Go,space,0.3342851999914273,Correct,False,False
103,1.0,103,144.3015172000014,Go,space,0.3321737999940524,Correct,False,False
104,1.0,104,145.26595590000215,Go,space,0.4009627999912482,Correct,False,False
105,1.0,105,146.23305300000357,Go,space,0.4830543999996735,Correct,False,False
106,1.0,106,147.19856640000944,Go,space,0.3339854000078048,Correct,False,False
107,1.0,107,148.16408470000897,Go,space,0.3337186999997357,Correct,False,False
108,1.0,108,149.12985260000278,Go,space,0.3519674999988638,Correct,False,False
109,1.0,109,150.0953879000008,No_go,space,0.3505066000070655,Incorrect,False,True
110,1.0,110,151.0611571000045,Go,space,0.367042699988815,Correct,False,False
111,1.0,111,152.0268056000059,Go,space,0.3505057000002125,Correct,False,False
112,1.0,112,152.9933383000025,Go,space,0.3832174999988638,Correct,False,False
113,1.0,113,153.9588902999967,Go,space,0.433684000003268,Correct,False,False
114,1.0,114,154.92457050000667,Go,space,0.3503082000097492,Correct,False,False
115,1.0,115,155.89067649999924,Go,space,0.3339215000014519,Correct,False,False
116,1.0,116,156.8563637000043,Go,space,0.3673481000005267,Correct,False,False
117,1.0,117,157.82232700000168,Go,space,0.3995086999930208,Correct,False,False
118,1.0,118,158.78772520000348,Go,space,0.3172868999972706,Correct,False,False
119,1.0,119,159.7531924000068,Go,space,0.4008911999990232,Correct,False,False
120,1.0,120,160.7196219000034,Go,space,0.3335740999900736,Correct,False,False
121,1.0,121,161.6849532000051,Go,space,0.3340054000000236,Correct,False,False
122,1.0,122,162.650830700004,Go,space,0.3671679999970365,Correct,False,False
123,1.0,123,163.61656960000985,Go,space,0.3673185000079684,Correct,False,False
124,1.0,124,164.58244569999806,Go,space,0.3332383000088157,Correct,False,False
125,1.0,125,165.54819139999745,No_go,space,0.2838710999931209,Incorrect,False,True
126,1.0,126,166.51489940000465,Go,space,0.3496075000002747,Correct,False,False
127,1.0,127,167.47949640000297,Go,space,0.3170551000075647,Correct,False,False
128,1.0,128,168.44547659999807,Go,space,0.5170893000031356,Correct,False,False
129,1.0,129,169.4115906000079,No_go,space,0.3508563999930629,Incorrect,False,True
130,1.0,130,170.3768635000015,No_go,,0.0,Correct,False,False
131,1.0,131,171.34290840000904,Go,space,0.3166379000031156,Correct,False,False
132,1.0,132,172.30825490001007,Go,space,0.3839985000086017,Correct,False,False
133,1.0,133,173.27429760000086,Go,space,0.3665124000108335,Correct,False,False
134,1.0,134,174.2397209000046,Go,space,0.3673651999997673,Correct,False,False
135,2.0,135,185.15784780000104,Go,space,0.3729911999980686,Correct,False,False
136,2.0,136,186.11201450000223,Go,space,0.3826803999982076,Correct,False,False
137,2.0,137,187.07750890000895,Go,space,0.3339994999987539,Correct,False,False
138,2.0,138,188.04358160000996,Go,space,0.3831266999914078,Correct,False,False
139,2.0,139,189.00920980000228,Go,space,0.3501103000016883,Correct,False,False
140,2.0,140,189.97525220000531,Go,space,0.3334535999892978,Correct,False,False
141,2.0,141,190.94108470001083,Go,space,0.3834101999964332,Correct,False,False
142,2.0,142,191.906581400006,Go,space,0.4008427000080701,Correct,False,False
143,2.0,143,192.87278920000244,Go,space,0.4330411999981152,Correct,False,False
144,2.0,144,193.8385527000064,Go,space,0.4496097000082955,Correct,False,False
145,2.0,145,194.8035428000003,Go,space,0.4347159000026295,Correct,False,False
146,2.0,146,195.76969960000133,Go,space,0.4170429000078002,Correct,False,False
147,2.0,147,196.7356664000108,Go,space,0.3833831999945687,Correct,False,False
148,2.0,148,197.7016283999983,Go,space,0.4005758999992395,Correct,False,False
149,2.0,149,198.66731470001105,No_go,space,0.3515341000020271,Incorrect,False,True
150,2.0,150,199.63276049999692,Go,space,0.4173265999997966,Correct,False,False
151,2.0,151,200.59829490000263,No_go,space,0.3507309999986319,Incorrect,False,True
152,2.0,152,201.5644681999984,Go,space,0.3674620999954641,Correct,False,False
153,2.0,153,202.5308386999968,Go,space,0.3670978000009199,Correct,False,False
154,2.0,154,203.4963398000109,Go,space,0.3833789999916916,Correct,False,False
155,2.0,155,204.46184790000552,No_go,,0.0,Correct,False,False
156,2.0,156,205.4270308999985,Go,space,0.3679296000045724,Correct,False,False
157,2.0,157,206.3942137999984,Go,space,0.3991963000007672,Correct,False,False
158,2.0,158,207.35898460001044,Go,space,0.3676193999999668,Correct,False,False
159,2.0,159,208.32555360000697,Go,space,0.383138199991663,Correct,False,False
160,2.0,160,209.28977590000432,Go,space,0.4511464999959571,Correct,False,False
161,2.0,161,210.2565539000061,Go,space,0.3830356000107713,Correct,False,False
162,2.0,162,211.2222117000056,Go,space,0.4330793999979505,Correct,False,False
163,2.0,163,212.1880622000026,Go,space,0.4332483000034699,Correct,False,False
164,2.0,164,213.1538148999971,Go,space,0.3835951000073692,Correct,False,False
165,2.0,165,214.11952170000583,No_go,,0.0,Correct,False,False
166,2.0,166,215.0853594000073,Go,space,0.3667621000058716,Correct,False,False
167,2.0,167,216.05108550000296,Go,space,0.5166902000055416,Correct,False,False
168,2.0,168,217.0170000000071,Go,space,0.266629899997497,Correct,False,False
169,2.0,169,217.98316180000256,No_go,,0.0,Correct,False,False
170,2.0,170,218.94796320000023,Go,space,0.3188508999883197,Correct,False,False
171,2.0,171,219.9146742000012,Go,space,0.3341459000075701,Correct,False,False
172,2.0,172,220.8797676000104,No_go,,0.0,Correct,False,False
173,2.0,173,221.844897700008,Go,space,0.3176573000091593,Correct,False,False
174,2.0,174,222.8117216000101,No_go,space,0.399841499995091,Incorrect,False,True
175,2.0,175,223.77665700000944,No_go,,0.0,Correct,False,False
176,2.0,176,224.74270490001072,Go,space,0.3335963999998057,Correct,False,False
177,2.0,177,225.7084928999975,No_go,,0.0,Correct,False,False
178,2.0,178,226.6742901000107,Go,space,0.350420300004771,Correct,False,False
179,2.0,179,227.6404126999987,Go,space,0.3849641999986488,Correct,False,False
180,2.0,180,228.605865000005,Go,space,0.3670943999895826,Correct,False,False
181,2.0,181,229.57236810000904,Go,space,0.4165213999949628,Correct,False,False
182,2.0,182,230.53685030000636,Go,space,0.5006259000074351,Correct,False,False
183,2.0,183,231.50351900000533,Go,space,0.3659496999898692,Correct,False,False
184,2.0,184,232.46854390000223,Go,space,0.3663020000094548,Correct,False,False
185,2.0,185,233.434247600002,Go,space,0.4004083000036189,Correct,False,False
186,2.0,186,234.3999702000001,No_go,,0.0,Correct,False,False
187,2.0,187,235.36611930000072,Go,space,0.3670050999935483,Correct,False,False
188,2.0,188,236.33183540000755,Go,space,0.5005338999908417,Correct,False,False
189,2.0,189,237.29783170000883,Go,space,0.3671481999917887,Correct,False,False
190,2.0,190,238.2633463000093,Go,space,0.4333231000055093,Correct,False,False
191,2.0,191,239.22927399999756,Go,space,0.2675971999997273,Correct,False,False
192,2.0,192,240.19505059999935,Go,space,0.3003104999952484,Correct,False,False
193,2.0,193,241.1610434000031,Go,space,0.3555683000013232,Correct,False,False
194,2.0,194,242.12677810000605,Go,space,0.4002624999993713,Correct,False,False
195,2.0,195,243.092177700004,Go,space,0.4171933000034187,Correct,False,False
196,2.0,196,244.05769339999824,Go,space,0.2675894999993033,Correct,False,False
197,2.0,197,245.0247878000082,No_go,space,0.2829154999926686,Incorrect,False,True
198,2.0,198,245.98987289999783,Go,space,0.3833652999892365,Correct,False,False
199,2.0,199,246.9555049000046,Go,space,0.3833942000055685,Correct,False,False
200,2.0,200,247.92156930000056,Go,space,0.3341779000038514,Correct,False,False
201,2.0,201,248.8866590999969,No_go,space,0.3011878999968758,Incorrect,False,True
202,2.0,202,249.85315890000493,Go,space,0.4838181999948574,Correct,False,False
203,2.0,203,250.81827240000712,Go,space,0.3339994999987539,Correct,False,False
204,2.0,204,251.78423190000467,Go,space,0.3337664999999106,Correct,False,False
205,2.0,205,252.7501636000088,Go,space,0.3830782000004546,Correct,False,False
206,2.0,206,253.7161333999975,Go,space,0.4666894000110915,Correct,False,False
207,2.0,207,254.68158910000056,Go,space,0.2671873999934178,Correct,False,False
208,2.0,208,255.6469922999968,Go,space,0.3505589999986114,Correct,False,False
209,2.0,209,256.6136093000096,Go,space,0.333660799995414,Correct,False,False
210,2.0,210,257.5786083999992,Go,space,0.3508886999916285,Correct,False,False
211,2.0,211,258.5445462000061,Go,space,0.2848929000028875,Correct,False,False
212,2.0,212,259.5111426000076,Go,space,0.4325935999950161,Correct,False,False
213,2.0,213,260.47613439999986,Go,space,0.2503011000080732,Correct,False,False
214,2.0,214,261.44182659999933,Go,space,0.2849822999996831,Correct,False,False
215,2.0,215,262.4074924000015,Go,space,0.2669041000044672,Correct,False,False
216,2.0,216,263.37343910000345,No_go,space,0.318081000004895,Incorrect,False,True
217,2.0,217,264.33950699999696,No_go,space,0.3331737999978941,Incorrect,False,True
218,2.0,218,265.30502569999953,Go,space,0.3666605000034906,Correct,False,False
219,2.0,219,266.2711974999984,No_go,space,0.2333425999968312,Incorrect,False,True
220,2.0,220,267.236659000002,No_go,,0.0,Correct,False,False
221,2.0,221,268.20250150001084,No_go,,0.0,Correct,False,False
222,2.0,222,269.16792410000926,Go,space,0.3504106000036699,Correct,False,False
223,2.0,223,270.1343940000079,No_go,,0.0,Correct,False,False
224,2.0,224,271.0991676999984,Go,space,0.3842246999993222,Correct,False,False
225,3.0,225,281.7323153000034,Go,space,0.4582116000092355,Correct,False,False
226,3.0,226,282.6885500000062,Go,space,0.3496281999978237,Correct,False,False
227,3.0,227,283.65436220000265,Go,space,0.4167359999992186,Correct,False,False
228,3.0,228,284.6194084000017,Go,space,0.3509062000084668,Correct,False,False
229,3.0,229,285.58549690000655,Go,space,0.3837139000097522,Correct,False,False
230,3.0,230,286.5515708000021,No_go,space,0.2670307000080356,Incorrect,False,True
231,3.0,231,287.5171714000025,No_go,,0.0,Correct,False,False
232,3.0,232,288.48279130000446,Go,space,0.3836387999908766,Correct,False,False
233,3.0,233,289.4486914000008,Go,space,0.3845535000000382,Correct,False,False
234,3.0,234,290.4140059000056,Go,space,0.4176853999961167,Correct,False,False
235,3.0,235,291.3802855000104,Go,space,0.3672784999944269,Correct,False,False
236,3.0,236,292.3460469999991,Go,space,0.3667400999984238,Correct,False,False
237,3.0,237,293.3122594000015,Go,space,0.3002797999943141,Correct,False,False
238,3.0,238,294.27708440000424,No_go,,0.0,Correct,False,False
239,3.0,239,295.2434224000026,No_go,,0.0,Correct,False,False
240,3.0,240,296.20953370000643,Go,space,0.3173017000081017,Correct,False,False
241,3.0,241,297.1751979999972,Go,space,0.4002409999957308,Correct,False,False
242,3.0,242,298.14142939999874,No_go,,0.0,Correct,False,False
243,3.0,243,299.1066665000108,No_go,space,0.3511426000040956,Incorrect,False,True
244,3.0,244,300.07226040000387,No_go,,0.0,Correct,False,False
245,3.0,245,301.0383090999967,Go,space,0.386387199992896,Correct,False,False
246,3.0,246,302.0042517000111,Go,space,0.6002195999899413,Correct,False,False
247,3.0,247,302.9697382000013,Go,space,0.3856543000001693,Correct,False,False
248,3.0,248,303.9355573000066,Go,space,0.4004159000032814,Correct,False,False
249,3.0,249,304.9008123000094,Go,space,0.4508656999969389,Correct,False,False
250,3.0,250,305.86706020000565,Go,space,0.5009611999994377,Correct,False,False
251,3.0,251,306.83241570000246,No_go,space,0.3173671000113245,Incorrect,False,True
252,3.0,252,307.7985733000096,Go,space,0.4501183000102173,Correct,False,False
253,3.0,253,308.76462220000394,Go,space,0.366706200002227,Correct,False,False
254,3.0,254,309.7304812000075,Go,space,0.3667945000051986,Correct,False,False
255,3.0,255,310.6960198000015,No_go,,0.0,Correct,False,False
256,3.0,256,311.6616103999986,No_go,space,0.3671074000012595,Incorrect,False,True
257,3.0,257,312.6272651000036,No_go,,0.0,Correct,False,False
258,3.0,258,313.59342350000225,Go,space,0.3502374999952735,Correct,False,False
259,3.0,259,314.55905750000966,Go,space,0.3498634999996284,Correct,False,False
260,3.0,260,315.5243996000063,Go,space,0.3673366000002716,Correct,False,False
261,3.0,261,316.49089770000137,No_go,,0.0,Correct,False,False
262,3.0,262,317.4560380000039,Go,space,0.3678742999909445,Correct,False,False
263,3.0,263,318.4221227000089,Go,space,0.3831167000025743,Correct,False,False
264,3.0,264,319.38724670000374,Go,space,0.3340509999979986,Correct,False,False
265,3.0,265,320.35376240000187,Go,space,0.3670815999939805,Correct,False,False
266,3.0,266,321.31911050000053,Go,space,0.3329255000135163,Correct,False,False
267,3.0,267,322.284656600008,Go,space,0.400919600011548,Correct,False,False
268,3.0,268,323.2507626000006,Go,space,0.4514112999895587,Correct,False,False
269,3.0,269,324.2165806999983,No_go,,0.0,Correct,False,False
270,3.0,270,325.1825203000044,No_go,,0.0,Correct,False,False
271,3.0,271,326.1480856999988,Go,space,0.4170539000042481,Correct,False,False
272,3.0,272,327.1141234000097,Go,space,0.3682979000004707,Correct,False,False
273,3.0,273,328.0795313999988,Go,space,0.3690427999972598,Correct,False,False
274,3.0,274,329.0452517000085,No_go,,0.0,Correct,False,False
275,3.0,275,330.0111195000063,Go,space,0.316863200001535,Correct,False,False
276,3.0,276,330.9768219000107,Go,space,0.4179455999983474,Correct,False,False
277,3.0,277,331.94263070001034,Go,space,0.4000420999946072,Correct,False,False
278,3.0,278,332.9084351000056,Go,space,0.3669910000025993,Correct,False,False
279,3.0,279,333.8743853000051,Go,space,0.3661912999959895,Correct,False,False
280,3.0,280,334.8397807000001,No_go,space,0.3671219000098062,Incorrect,False,True
281,3.0,281,335.8055960000056,Go,space,0.3503510000009555,Correct,False,False
282,3.0,282,336.77133990000584,Go,space,0.3841620000021066,Correct,False,False
283,3.0,283,337.7371371000045,Go,space,0.3839199999929406,Correct,False,False
284,3.0,284,338.70322450000094,Go,space,0.4000513999926625,Correct,False,False
285,3.0,285,339.66899869999907,Go,space,0.3674690000043483,Correct,False,False
286,3.0,286,340.634762200003,Go,space,0.350170399993658,Correct,False,False
287,3.0,287,341.6003559000092,Go,space,0.3832136999990325,Correct,False,False
288,3.0,288,342.56588980001106,Go,space,0.3838232999987667,Correct,False,False
289,3.0,289,343.53182210000523,Go,space,0.2839735000015935,Correct,False,False
290,3.0,290,344.49733379999816,Go,space,0.3835129999933997,Correct,False,False
291,3.0,291,345.4638743000105,Go,space,0.3992183999944245,Correct,False,False
292,3.0,292,346.4290700999991,Go,space,0.3887673999997787,Correct,False,False
293,3.0,293,347.39515779999783,Go,space,0.3665824999916367,Correct,False,False
294,3.0,294,348.36102570001094,Go,space,0.3502545000083046,Correct,False,False
295,3.0,295,349.3266092999984,No_go,,0.0,Correct,False,False
296,3.0,296,350.29235170000175,Go,space,0.4667639999970561,Correct,False,False
297,3.0,297,351.25772540000617,Go,space,0.3677262999990489,Correct,False,False
298,3.0,298,352.224189200002,Go,space,0.3832918999978574,Correct,False,False
299,3.0,299,353.18939880000835,Go,space,0.4502896000049077,Correct,False,False
300,3.0,300,354.1555385000101,Go,space,0.4180513000028441,Correct,False,False
301,3.0,301,355.1214864000067,Go,space,0.3662329000071622,Correct,False,False
302,3.0,302,356.08667109999806,Go,space,0.4507190000003902,Correct,False,False
303,3.0,303,357.0520407000004,Go,space,0.3344026000122539,Correct,False,False
304,3.0,304,358.01802080000925,Go,space,0.4336070999997901,Correct,False,False
305,3.0,305,358.9844294000068,Go,space,0.4662876999936998,Correct,False,False
306,3.0,306,359.949735000002,Go,space,0.4503255000017816,Correct,False,False
307,3.0,307,360.9153714999993,Go,space,0.3176358000055188,Correct,False,False
308,3.0,308,361.88123189999897,Go,space,0.3682477999973343,Correct,False,False
309,3.0,309,362.84723349999695,No_go,space,0.3341114999930141,Incorrect,False,True
310,3.0,310,363.81325350000407,Go,space,0.3505604999954812,Correct,False,False
311,3.0,311,364.7788011000084,Go,space,0.3837074999901233,Correct,False,False
312,3.0,312,365.7446367000084,Go,space,0.3506443999940529,Correct,False,False
313,3.0,313,366.70983610000985,Go,space,0.4516753999923821,Correct,False,False
314,3.0,314,367.6758724000101,Go,space,0.419688900001347,Correct,False,False
315,4.0,315,378.6281167999987,Go,space,0.3202560000063386,Correct,False,False
316,4.0,316,379.5814793000027,Go,space,0.333254900004249,Correct,False,False
317,4.0,317,380.5475055999996,Go,space,0.2996050999936415,Correct,False,False
318,4.0,318,381.512790599998,Go,space,0.3335364999948069,Correct,False,False
319,4.0,319,382.478117400009,Go,space,0.3168983999930788,Correct,False,False
320,4.0,320,383.4448837000091,Go,space,0.2843165000085719,Correct,False,False
321,4.0,321,384.41010280000046,Go,space,0.3168614000023808,Correct,False,False
322,4.0,322,385.3752179000003,Go,space,0.3006312000070466,Correct,False,False
323,4.0,323,386.3418999999994,Go,space,0.2665426999883493,Correct,False,False
324,4.0,324,387.30771210000967,Go,space,0.366347900009714,Correct,False,False
325,4.0,325,388.2731658999983,Go,space,0.3331433999992441,Correct,False,False
326,4.0,326,389.2390481000039,Go,space,0.3844473999924958,Correct,False,False
327,4.0,327,390.2044306000025,Go,space,0.3836695000063628,Correct,False,False
328,4.0,328,391.1704030999972,Go,space,0.3662874000001466,Correct,False,False
329,4.0,329,392.1362304000068,Go,space,0.2846795999939786,Correct,False,False
330,4.0,330,393.101911500009,Go,space,0.5336217000003671,Correct,False,False
331,4.0,331,394.0675409999967,Go,space,0.3833220999949844,Correct,False,False
332,4.0,332,395.0325411000085,Go,space,0.3343739000119967,Correct,False,False
333,4.0,333,395.99945489999664,Go,space,0.3004701000027125,Correct,False,False
334,4.0,334,396.9652319000015,Go,space,0.400538999994751,Correct,False,False
335,4.0,335,397.9311371000076,Go,space,0.3503550000023097,Correct,False,False
336,4.0,336,398.8967266999971,Go,space,0.517418200004613,Correct,False,False
337,4.0,337,399.8629198999988,No_go,space,0.3003891999978805,Incorrect,False,True
338,4.0,338,400.8283697000006,Go,space,0.3835531000077026,Correct,False,False
339,4.0,339,401.79418989999976,Go,space,0.3670068999927025,Correct,False,False
340,4.0,340,402.7613652,Go,space,0.315918899999815,Correct,False,False
341,4.0,341,403.7252988000109,Go,space,0.3498844999994617,Correct,False,False
342,4.0,342,404.6915358999977,Go,space,0.3668662999989465,Correct,False,False
343,4.0,343,405.6568321000086,Go,space,0.3679764999978943,Correct,False,False
344,4.0,344,406.62299060000805,Go,space,0.3665707999898586,Correct,False,False
345,4.0,345,407.5886554000026,No_go,space,0.3337393999972846,Incorrect,False,True
346,4.0,346,408.5548051000078,Go,space,0.4169680000049993,Correct,False,False
347,4.0,347,409.52016870000807,Go,space,0.4008918999898014,Correct,False,False
348,4.0,348,410.4858419000084,Go,space,0.5001660999987507,Correct,False,False
349,4.0,349,411.4517455000023,No_go,space,0.2353406000038376,Incorrect,False,True
350,4.0,350,412.4175103000016,Go,space,0.3175778000004357,Correct,False,False
351,4.0,351,413.3830730000045,Go,space,0.250698799995007,Correct,False,False
352,4.0,352,414.3490058000025,Go,space,0.3353950000018812,Correct,False,False
353,4.0,353,415.3148820000061,Go,space,0.3342615000001387,Correct,False,False
354,4.0,354,416.2805090000038,Go,space,0.5001053000014508,Correct,False,False
355,4.0,355,417.24694420000014,Go,space,0.2999285999976564,Correct,False,False
356,4.0,356,418.2129863000009,Go,space,0.2996318999939831,Correct,False,False
357,4.0,357,419.1776642000041,Go,space,0.3006019000022206,Correct,False,False
358,4.0,358,420.1438030999998,Go,space,0.4000672999973176,Correct,False,False
359,4.0,359,421.1091237000073,No_go,,0.0,Correct,False,False
360,4.0,360,422.0754391000082,Go,space,0.3167905000009341,Correct,False,False
361,4.0,361,423.04111640001065,Go,space,0.3503045000106795,Correct,False,False
362,4.0,362,424.0065859000024,Go,space,0.3840235999959986,Correct,False,False
363,4.0,363,424.972843800002,Go,space,0.4495176000054925,Correct,False,False
364,4.0,364,425.9383855000051,No_go,space,0.3502160000061849,Incorrect,False,True
365,4.0,365,426.9039019000047,Go,space,0.3506303000031039,Correct,False,False
366,4.0,366,427.8698068000085,No_go,space,0.383804199998849,Incorrect,False,True
367,4.0,367,428.8358712000045,No_go,,0.0,Correct,False,False
368,4.0,368,429.80145410000114,Go,space,0.3673077999992529,Correct,False,False
369,4.0,369,430.76698549999855,Go,space,0.7177510000037728,Correct,False,False
370,4.0,370,431.7331486000039,Go,space,0.5166979000059655,Correct,False,False
371,4.0,371,432.6984339000046,No_go,space,0.3841662000049837,Incorrect,False,True
372,4.0,372,433.6646449000109,Go,space,0.7825585999962641,Correct,False,False
373,4.0,373,434.6298373000027,Go,space,0.5014445999986492,Correct,False,False
374,4.0,374,435.595868400007,Go,space,0.3339296999911312,Correct,False,False
375,4.0,375,436.5623134000052,No_go,,0.0,Correct,False,False
376,4.0,376,437.5275503000012,No_go,,0.0,Correct,False,False
377,4.0,377,438.49311340000713,Go,space,0.4672528999944916,Correct,False,False
378,4.0,378,439.45867920000455,Go,space,0.4502241000009235,Correct,False,False
379,4.0,379,440.4242342000071,Go,space,0.5015896999975666,Correct,False,False
380,4.0,380,441.3911042000109,No_go,,0.0,Correct,False,False
381,4.0,381,442.3554905000056,Go,space,0.3508371000061743,Correct,False,False
382,4.0,382,443.3217129999976,Go,space,0.4662324000091757,Correct,False,False
383,4.0,383,444.2876470000047,Go,space,0.4001300999952946,Correct,False,False
384,4.0,384,445.2534635000047,Go,space,0.5166708000033395,Correct,False,False
385,4.0,385,446.2184097999998,Go,space,0.4338993999990634,Correct,False,False
386,4.0,386,447.184871400008,Go,space,0.6495042000024114,Correct,False,False
387,4.0,387,448.1504408000037,No_go,,0.0,Correct,False,False
388,4.0,388,449.1163622000022,Go,space,0.3335802999936277,Correct,False,False
389,4.0,389,450.0825544000109,No_go,,0.0,Correct,False,False
390,4.0,390,451.0482251000067,Go,space,0.4514676000108011,Correct,False,False
391,4.0,391,452.013944300008,No_go,space,0.8165238999936264,Incorrect,False,True
392,4.0,392,452.98006250000617,Go,,0.0,Incorrect,True,False
393,4.0,393,453.9455415999983,No_go,,0.0,Correct,False,False
394,4.0,394,454.91116840000905,Go,space,0.3841106000036234,Correct,False,False
395,4.0,395,455.8765337000077,Go,space,0.5341379000019515,Correct,False,False
396,4.0,396,456.8430379000056,Go,space,0.4669889000069815,Correct,False,False
397,4.0,397,457.80840010000975,No_go,,0.0,Correct,False,False
398,4.0,398,458.7750298000028,No_go,,0.0,Correct,False,False
399,4.0,399,459.7401943000005,Go,space,0.3837539000087417,Correct,False,False
400,4.0,400,460.7062849000067,Go,space,0.5008403999963775,Correct,False,False
401,4.0,401,461.67153490000055,Go,space,0.5666034000023501,Correct,False,False
402,4.0,402,462.6385578000045,Go,space,0.3993622999987565,Correct,False,False
403,4.0,403,463.6037502000109,Go,space,0.4163765999983297,Correct,False,False
404,4.0,404,464.56860810000217,No_go,,0.0,Correct,False,False
405,5.0,405,482.4160722000088,Go,space,0.4695119999960297,Correct,False,False
406,5.0,406,483.3839748000028,Go,space,0.3339715000038268,Correct,False,False
407,5.0,407,484.34930110001005,Go,space,0.3176249999960419,Correct,False,False
408,5.0,408,485.3156045000069,Go,space,0.3337918000033824,Correct,False,False
409,5.0,409,486.2812453000079,Go,space,0.3848589000117499,Correct,False,False
410,5.0,410,487.2473033999995,No_go,,0.0,Correct,False,False
411,5.0,411,488.2129786000005,No_go,space,0.3835733000014443,Incorrect,False,True
412,5.0,412,489.17883900000015,Go,space,0.3666683999908855,Correct,False,False
413,5.0,413,490.1446633000014,Go,space,0.3668982999952277,Correct,False,False
414,5.0,414,491.11067470000125,Go,space,0.3834226000035414,Correct,False,False
415,5.0,415,492.0759693,Go,space,0.4171848999976646,Correct,False,False
416,5.0,416,493.0417080000043,Go,space,0.4832660000101896,Correct,False,False
417,5.0,417,494.00754269999743,No_go,,0.0,Correct,False,False
418,5.0,418,494.97388689999934,Go,space,0.4002389999950537,Correct,False,False
419,5.0,419,495.9390774000058,Go,space,0.533872900006827,Correct,False,False
420,5.0,420,496.9052745000081,No_go,,0.0,Correct,False,False
421,5.0,421,497.8708003000065,No_go,,0.0,Correct,False,False
422,5.0,422,498.8371267000039,No_go,,0.0,Correct,False,False
423,5.0,423,499.8027087000082,Go,space,0.3839090999972541,Correct,False,False
424,5.0,424,500.7683523000014,No_go,,0.0,Correct,False,False
425,5.0,425,501.7345200999989,Go,space,0.3834307000070112,Correct,False,False
426,5.0,426,502.6996303000051,Go,space,0.4353343999973731,Correct,False,False
427,5.0,427,503.66566559999774,Go,space,0.7831819999992149,Correct,False,False
428,5.0,428,504.6310908000014,Go,space,0.4344208999973489,Correct,False,False
429,5.0,429,505.597334799997,No_go,,0.0,Correct,False,False
430,5.0,430,506.56359109999903,Go,space,0.401196599996183,Correct,False,False
431,5.0,431,507.52842470000905,Go,space,0.5006554999999935,Correct,False,False
432,5.0,432,508.4950768999988,Go,space,0.5329243000014685,Correct,False,False
433,5.0,433,509.4604834000056,Go,space,0.4827929000020958,Correct,False,False
434,5.0,434,510.4258422999992,Go,space,0.5180580000014743,Correct,False,False
435,5.0,435,511.39226040001085,Go,space,0.5654196000105003,Correct,False,False
436,5.0,436,512.3571574000089,Go,space,0.5664378999936162,Correct,False,False
437,5.0,437,513.323123299997,Go,space,0.5329012000001967,Correct,False,False
438,5.0,438,514.2888166000048,Go,space,0.5497557000053348,Correct,False,False
439,5.0,439,515.2541141000111,Go,space,0.4672674999892479,Correct,False,False
440,5.0,440,516.2209533999994,Go,space,0.4326501000032294,Correct,False,False
441,5.0,441,517.1860719000106,No_go,,0.0,Correct,False,False
442,5.0,442,518.1520298999967,Go,space,0.4996840999956475,Correct,False,False
443,5.0,443,519.1174981000077,Go,space,0.5833922000019811,Correct,False,False
444,5.0,444,520.0835871000018,No_go,,0.0,Correct,False,False
445,5.0,445,521.0510603000002,Go,space,0.4480829999956768,Correct,False,False
446,5.0,446,522.0145927999984,Go,space,0.5008583000017097,Correct,False,False
447,5.0,447,522.9804453999968,No_go,,0.0,Correct,False,False
448,5.0,448,523.9465488999995,Go,space,0.4002953000017442,Correct,False,False
449,5.0,449,524.9124432000099,No_go,,0.0,Correct,False,False
450,5.0,450,525.878014700007,Go,space,0.4174076000053901,Correct,False,False
451,5.0,451,526.8436425999971,Go,space,0.4014191000023857,Correct,False,False
452,5.0,452,527.8100311000017,Go,space,0.4338524999911897,Correct,False,False
453,5.0,453,528.7761365000042,Go,space,0.4516618000052403,Correct,False,False
454,5.0,454,529.741154400006,No_go,,0.0,Correct,False,False
455,5.0,455,530.7073286000086,Go,space,0.4500259000051301,Correct,False,False
456,5.0,456,531.6736101999995,Go,space,0.4162455000041518,Correct,False,False
457,5.0,457,532.6383489,Go,space,0.5340619000053266,Correct,False,False
458,5.0,458,533.6049809999968,Go,space,0.5003461000014795,Correct,False,False
459,5.0,459,534.5706709000078,Go,space,0.4998580999963451,Correct,False,False
460,5.0,460,535.5362445000064,Go,space,0.466719899995951,Correct,False,False
461,5.0,461,536.5011108000035,No_go,,0.0,Correct,False,False
462,5.0,462,537.4673048999975,Go,space,0.4333831999974791,Correct,False,False
463,5.0,463,538.4330794999987,Go,space,0.5500002000044333,Correct,False,False
464,5.0,464,539.3990866000095,Go,space,0.4347695000033127,Correct,False,False
465,5.0,465,540.3645484000008,No_go,,0.0,Correct,False,False
466,5.0,466,541.3304951000027,Go,space,0.3684697999997297,Correct,False,False
467,5.0,467,542.2959968000068,Go,space,0.5333614000119269,Correct,False,False
468,5.0,468,543.261825900001,Go,space,0.4500564000045415,Correct,False,False
469,5.0,469,544.227063600003,Go,space,0.4510120999912033,Correct,False,False
470,5.0,470,545.1931528999994,No_go,,0.0,Correct,False,False
471,5.0,471,546.1592627000064,Go,space,0.3670007000037003,Correct,False,False
472,5.0,472,547.125009299998,No_go,,0.0,Correct,False,False
473,5.0,473,548.090721200002,Go,space,0.3514773000060813,Correct,False,False
474,5.0,474,549.0568088,Go,space,0.5168756000057328,Correct,False,False
475,5.0,475,550.0228914000036,Go,space,0.5329993999912404,Correct,False,False
476,5.0,476,550.9878658000089,Go,space,0.5333920999983093,Correct,False,False
477,5.0,477,551.9541312000074,Go,space,0.4669952999975066,Correct,False,False
478,5.0,478,552.9199631000083,Go,space,0.4536818000051426,Correct,False,False
479,5.0,479,553.8854876999976,Go,space,0.5169959999911953,Correct,False,False
480,5.0,480,554.8511689000006,Go,space,0.5833517999999458,Correct,False,False
481,5.0,481,555.8172086999984,Go,space,0.4667645000008633,Correct,False,False
482,5.0,482,556.7828261000104,Go,space,0.5499848999897949,Correct,False,False
483,5.0,483,557.7483587000024,Go,space,0.583583900006488,Correct,False,False
484,5.0,484,558.7148789000057,Go,space,0.566757200009306,Correct,False,False
485,5.0,485,559.6802801000013,Go,space,0.5997331999969902,Correct,False,False
486,5.0,486,560.6459010000108,Go,space,0.5340442000015173,Correct,False,False
487,5.0,487,561.6118916999985,Go,space,0.6169588000047952,Correct,False,False
488,5.0,488,562.5773773999972,No_go,,0.0,Correct,False,False
489,5.0,489,563.5427876000031,Go,space,0.3177496999996947,Correct,False,False
490,5.0,490,564.5086264999991,Go,space,0.4173055999999633,Correct,False,False
491,5.0,491,565.4745973000099,Go,space,0.5004653999931179,Correct,False,False
492,5.0,492,566.4400951999996,Go,space,0.6017846999893663,Correct,False,False
493,5.0,493,567.4060707000026,Go,space,0.6000483999960124,Correct,False,False
494,5.0,494,568.3719169999968,Go,space,0.5662138000043342,Correct,False,False
495,6.0,495,584.1911413000053,Go,space,0.3993254999950295,Correct,False,False
496,6.0,496,585.155746000004,Go,space,0.3839584999950602,Correct,False,False
497,6.0,497,586.1214746000041,Go,space,0.3004264000046532,Correct,False,False
498,6.0,498,587.0871761000017,No_go,space,0.3675630999932764,Incorrect,False,True
499,6.0,499,588.0531795999996,Go,space,0.3832891999918502,Correct,False,False
500,6.0,500,589.0191696000111,Go,space,0.3997295000008307,Correct,False,False
501,6.0,501,589.9846134999971,Go,space,0.4007141000038245,Correct,False,False
502,6.0,502,590.9503979000001,No_go,,0.0,Correct,False,False
503,6.0,503,591.916670000006,Go,space,0.3825147000025026,Correct,False,False
504,6.0,504,592.8821482000058,Go,space,0.3996054000017466,Correct,False,False
505,6.0,505,593.8477120000025,Go,space,0.450186100002611,Correct,False,False
506,6.0,506,594.8140031000075,Go,space,0.4507302999991225,Correct,False,False
507,6.0,507,595.7799522999994,Go,space,0.384070400003111,Correct,False,False
508,6.0,508,596.7448577000032,Go,space,0.4002556999912485,Correct,False,False
509,6.0,509,597.7109984999988,No_go,,0.0,Correct,False,False
510,6.0,510,598.6766962999973,Go,space,0.3513521999993827,Correct,False,False
511,6.0,511,599.642344500011,Go,space,0.3836615000036545,Correct,False,False
512,6.0,512,600.6082569999999,No_go,space,0.3835319999925559,Incorrect,False,True
513,6.0,513,601.5741257000045,Go,space,0.3997697000013431,Correct,False,False
514,6.0,514,602.5395103000046,Go,space,0.4166564000042854,Correct,False,False
515,6.0,515,603.5052020000003,Go,space,0.4501558000047225,Correct,False,False
516,6.0,516,604.4714371000009,Go,space,0.499595599991153,Correct,False,False
517,6.0,517,605.4367115000059,Go,space,0.384057399991434,Correct,False,False
518,6.0,518,606.402648800009,Go,space,0.3995523999910801,Correct,False,False
519,6.0,519,607.3685982000025,Go,space,0.3504855999926803,Correct,False,False
520,6.0,520,608.3344406999968,Go,space,0.3847282000060659,Correct,False,False
521,6.0,521,609.3004712999973,Go,space,0.4830655999976443,Correct,False,False
522,6.0,522,610.2664063999982,Go,space,0.3836365000024671,Correct,False,False
523,6.0,523,611.232010599997,Go,space,0.3351437000092119,Correct,False,False
524,6.0,524,612.197708000007,Go,space,0.4336539999931119,Correct,False,False
525,6.0,525,613.1633022000024,Go,space,0.4007062000018777,Correct,False,False
526,6.0,526,614.1290262999973,Go,space,0.5342538999975659,Correct,False,False
527,6.0,527,615.0952890000044,Go,space,0.3667299000080675,Correct,False,False
528,6.0,528,616.0609649999969,Go,space,0.4169803000113461,Correct,False,False
529,6.0,529,617.0265561999986,Go,space,0.5169335000100546,Correct,False,False
530,6.0,530,617.9920246000111,Go,space,0.4351755999960005,Correct,False,False
531,6.0,531,618.9578444000072,No_go,,0.0,Correct,False,False
532,6.0,532,619.9239352000004,No_go,space,0.2506067999929655,Incorrect,False,True
533,6.0,533,620.8893607000064,Go,space,0.366988499998115,Correct,False,False
534,6.0,534,621.8557836000109,No_go,space,0.4001341999974102,Incorrect,False,True
535,6.0,535,622.8214425000042,Go,space,0.4166177000006428,Correct,False,False
536,6.0,536,623.7865002000035,No_go,space,0.3841307999973651,Incorrect,False,True
537,6.0,537,624.7526636999974,No_go,,0.0,Correct,False,False
538,6.0,538,625.7181494999968,Go,space,0.3835266999958548,Correct,False,False
539,6.0,539,626.6838757000078,Go,space,0.5339111999928718,Correct,False,False
540,6.0,540,627.6499145999987,Go,space,0.4669056999991881,Correct,False,False
541,6.0,541,628.6159315999976,No_go,,0.0,Correct,False,False
542,6.0,542,629.5813143999985,Go,space,0.3834564999997383,Correct,False,False
543,6.0,543,630.5470971000032,Go,space,0.4003317000024253,Correct,False,False
544,6.0,544,631.5131470000051,Go,space,0.4175682999921264,Correct,False,False
545,6.0,545,632.4785050000064,No_go,,0.0,Correct,False,False
546,6.0,546,633.4444233000104,No_go,space,0.4007520000013755,Incorrect,False,True
547,6.0,547,634.4104921000107,Go,space,0.416507999994792,Correct,False,False
548,6.0,548,635.3760073000012,Go,space,0.5340043999894988,Correct,False,False
549,6.0,549,636.3418878000084,Go,space,0.4002230000041891,Correct,False,False
550,6.0,550,637.3070189999999,Go,space,0.4010581000038655,Correct,False,False
551,6.0,551,638.2732631000108,Go,space,0.4173367000039434,Correct,False,False
552,6.0,552,639.2385273000109,Go,space,0.3175840999901993,Correct,False,False
553,6.0,553,640.2050229000015,Go,space,0.4169710999995004,Correct,False,False
554,6.0,554,641.1705654000107,Go,space,0.3674164999974891,Correct,False,False
555,6.0,555,642.1364766000042,Go,space,0.3679855999944266,Correct,False,False
556,6.0,556,643.101413700002,Go,space,0.4016773999901488,Correct,False,False
557,6.0,557,644.0675842000055,Go,space,0.4338566999940667,Correct,False,False
558,6.0,558,645.0332082000095,Go,space,0.301210199992056,Correct,False,False
559,6.0,559,645.9990562000021,No_go,space,0.3340950999991037,Incorrect,False,True
560,6.0,560,646.964742000011,No_go,,0.0,Correct,False,False
561,6.0,561,647.9306072000036,Go,space,0.3667625999951269,Correct,False,False
562,6.0,562,648.8962379000004,Go,space,0.4007598000025609,Correct,False,False
563,6.0,563,649.8621630999987,Go,space,0.3666273999988334,Correct,False,False
564,6.0,564,650.8276455000014,No_go,,0.0,Correct,False,False
565,6.0,565,651.793250200004,No_go,space,0.3332151000067824,Incorrect,False,True
566,6.0,566,652.7595568999968,Go,space,0.4841215999913402,Correct,False,False
567,6.0,567,653.7248707000108,Go,space,0.4000051000039093,Correct,False,False
568,6.0,568,654.6908821999968,Go,space,0.400108400004683,Correct,False,False
569,6.0,569,655.6569084000075,Go,space,0.3837356000003638,Correct,False,False
570,6.0,570,656.6222620000044,Go,space,0.3837377000018023,Correct,False,False
571,6.0,571,657.5878879000084,Go,space,0.4331576999975368,Correct,False,False
572,6.0,572,658.5539845000021,Go,space,0.4003801000071689,Correct,False,False
573,6.0,573,659.5194581000105,No_go,,0.0,Correct,False,False
574,6.0,574,660.4850768000033,Go,space,0.4002994000038598,Correct,False,False
575,6.0,575,661.4507363000012,Go,space,0.3844409000012092,Correct,False,False
576,6.0,576,662.4170497000014,Go,space,0.3829565999913029,Correct,False,False
577,6.0,577,663.3828232000087,Go,space,0.316776600011508,Correct,False,False
578,6.0,578,664.348533299999,No_go,,0.0,Correct,False,False
579,6.0,579,665.314327,Go,space,0.3833553000004031,Correct,False,False
580,6.0,580,666.2803372000053,Go,space,0.3829146000061882,Correct,False,False
581,6.0,581,667.2453869000019,Go,space,0.3673808000021381,Correct,False,False
582,6.0,582,668.2116395000048,Go,space,0.3001866999984486,Correct,False,False
583,6.0,583,669.1771084000065,Go,space,0.3998623999941628,Correct,False,False
584,6.0,584,670.1426407000108,Go,space,0.4014581000083126,Correct,False,False
