,block_index,trial,trial_onset(s),stimulus_type,resp_key,rt(s),correct,is_omission,is_comission
0,,0,19.47749659999681,Go,,0.0,Incorrect,True,False
1,,1,21.491784700003336,Go,,0.0,Incorrect,True,False
2,,2,23.505261400001476,Go,space,0.2417455999966478,Correct,False,False
3,,3,24.512217199997394,Go,space,0.399566699998104,Correct,False,False
4,,4,25.527853399995365,Go,space,0.3832511999935377,Correct,False,False
5,,5,26.54385200000252,Go,space,0.3501810000016121,Correct,False,False
6,,6,27.559785100005683,Go,space,0.4325393000035546,Correct,False,False
7,,7,28.57484349999868,Go,space,0.3823737000057008,Correct,False,False
8,,8,29.590995199992904,Go,space,0.5337837999977637,Correct,False,False
9,,9,30.606463300006,Go,space,0.4323747000016738,Correct,False,False
10,,10,31.62219739999273,No_go,space,0.4332416000106605,Incorrect,False,True
11,,11,32.63789939999697,Go,space,0.6338115999969887,Correct,False,False
12,,12,33.65395829999761,Go,space,0.5826541999995243,Correct,False,False
13,,13,34.669290699996054,Go,space,0.3337207000004127,Correct,False,False
14,,14,35.685405600001104,Go,space,0.4647934999957215,Correct,False,False
15,,15,36.70076659999904,No_go,space,0.3172844999935478,Incorrect,False,True
16,,16,37.71643879999465,Go,space,0.5330956000107108,Correct,False,False
17,,17,38.73234380000213,Go,space,0.3334010999969905,Correct,False,False
18,,18,39.74785080000584,Go,space,0.3340878000017255,Correct,False,False
19,,19,40.76370169999427,Go,space,0.5346867999905953,Correct,False,False
20,,20,41.77961409999989,Go,space,0.4495995000033872,Correct,False,False
21,,21,42.79517670000496,Go,space,0.3339181000046665,Correct,False,False
22,,22,43.81108329999552,Go,space,0.4336777999997139,Correct,False,False
23,,23,44.826286499999696,Go,space,0.3514679000072647,Correct,False,False
24,,24,45.84219429999939,Go,space,0.4502492999890819,Correct,False,False
25,,25,46.85793719999492,Go,space,0.4003770999988774,Correct,False,False
26,,26,47.87367539999832,Go,space,0.4010383999993792,Correct,False,False
27,,27,48.89018610000494,No_go,space,0.41573470000003,Incorrect,False,True
28,,28,49.90511429999606,No_go,space,0.4666325000143843,Incorrect,False,True
29,,29,50.92080700000224,Go,space,0.3671952000004239,Correct,False,False
30,,30,51.935885900005815,No_go,space,0.2014347999938763,Incorrect,False,True
31,,31,52.95295399999304,Go,space,0.3496682999975746,Correct,False,False
32,,32,53.96821920000366,Go,space,0.3000599999941187,Correct,False,False
33,,33,54.98375379999925,Go,space,0.3009889000095427,Correct,False,False
34,,34,55.99935830000322,Go,space,0.2677357000065967,Correct,False,False
35,,35,57.015158499998506,Go,space,0.3002734999899985,Correct,False,False
36,,36,58.03045989999373,Go,space,0.3182348999980604,Correct,False,False
37,,37,59.04691210000601,No_go,space,0.4162069000012707,Incorrect,False,True
38,,38,60.06219399999827,Go,space,0.4170919000025606,Correct,False,False
39,,39,61.07803839999542,Go,space,0.36630690000311,Correct,False,False
40,,40,62.0937552999967,No_go,space,0.6331248000060441,Incorrect,False,True
41,,41,63.10951710000518,No_go,space,0.6662005999969551,Incorrect,False,True
42,,42,64.12445780000417,Go,space,0.5848053999943659,Correct,False,False
43,,43,65.14106949999405,Go,space,0.6495993999997154,Correct,False,False
44,,44,66.15647370000079,No_go,space,0.8163153999921633,Incorrect,False,True
45,1.0,45,123.01010489999317,Go,space,0.7595470999949612,Correct,False,False
46,1.0,46,124.00173859999632,Go,space,0.7838240999990376,Correct,False,False
47,1.0,47,125.00146119999408,Go,space,0.7993477999989409,Correct,False,False
48,1.0,48,126.00110239999776,Go,space,0.799124799988931,Correct,False,False
49,1.0,49,126.99986229999922,Go,space,0.7667196999973385,Correct,False,False
50,1.0,50,127.99861589999637,No_go,,0.0,Correct,False,False
51,1.0,51,128.9979241999972,Go,space,0.4662338999914936,Correct,False,False
52,1.0,52,129.99685539999336,Go,space,0.4660118000028888,Correct,False,False
53,1.0,53,130.99486419999448,Go,space,0.5328869999939343,Correct,False,False
54,1.0,54,131.99523689999478,Go,space,0.4331334000016795,Correct,False,False
55,1.0,55,132.99418300000252,Go,space,0.4838516000017989,Correct,False,False
56,1.0,56,133.99240380000265,Go,space,0.5844530000031227,Correct,False,False
57,1.0,57,134.9914274000039,Go,space,0.6835815000085859,Correct,False,False
58,1.0,58,135.99103299999842,Go,space,0.684090800001286,Correct,False,False
59,1.0,59,136.9904447000008,No_go,,0.0,Correct,False,False
60,1.0,60,137.98930489999475,Go,space,0.5169486000086181,Correct,False,False
61,1.0,61,138.988683699994,Go,space,0.632915399997728,Correct,False,False
62,1.0,62,139.98781829999643,Go,space,0.6165935000026366,Correct,False,False
63,1.0,63,140.98678789999394,No_go,,0.0,Correct,False,False
64,1.0,64,141.98604049999267,Go,space,0.4332621000066865,Correct,False,False
65,1.0,65,142.98487479999312,Go,space,0.3997182000020984,Correct,False,False
66,1.0,66,143.9840891000058,Go,space,0.4169620999891776,Correct,False,False
67,1.0,67,144.9829968999984,No_go,space,0.3499101999914273,Incorrect,False,True
68,1.0,68,145.9817408999952,No_go,,0.0,Correct,False,False
69,1.0,69,146.98188839999784,Go,space,0.3656374999991385,Correct,False,False
70,1.0,70,147.9802171000047,Go,space,0.4499055999913253,Correct,False,False
71,1.0,71,148.97931979999703,Go,space,0.4837133999972138,Correct,False,False
72,1.0,72,149.9776750000019,Go,space,0.5362240999966161,Correct,False,False
73,1.0,73,150.97708409999905,Go,space,0.533766900000046,Correct,False,False
74,1.0,74,151.97596450000128,Go,space,0.6170856000098865,Correct,False,False
75,1.0,75,152.97478950000368,Go,space,0.6005548999964958,Correct,False,False
76,1.0,76,153.97367849999864,Go,space,0.6349994000047445,Correct,False,False
77,1.0,77,154.97360480000498,Go,space,0.5000273999903584,Correct,False,False
78,1.0,78,155.9728252999921,Go,space,0.4834666000097058,Correct,False,False
79,1.0,79,156.97199399999226,Go,space,0.5999851999949897,Correct,False,False
80,1.0,80,157.970931799995,Go,space,0.6503108000033535,Correct,False,False
81,1.0,81,158.97037529999216,Go,space,0.6671135999931721,Correct,False,False
82,1.0,82,159.96895529999165,Go,space,0.749767300003441,Correct,False,False
83,1.0,83,160.96845709999616,Go,space,0.8486785999994026,Correct,False,False
84,1.0,84,161.96724109999195,Go,space,0.7842810000001919,Correct,False,False
85,1.0,85,162.96572839999862,No_go,,0.0,Correct,False,False
86,1.0,86,163.96500349999403,Go,space,0.4681468000053428,Correct,False,False
87,1.0,87,164.9642415999988,Go,space,0.5005028000014136,Correct,False,False
88,1.0,88,165.9635369000025,Go,space,0.6165177999937441,Correct,False,False
89,1.0,89,166.9616984000022,Go,space,0.600688699996681,Correct,False,False
90,1.0,90,167.96101569999882,No_go,,0.0,Correct,False,False
91,1.0,91,168.9605040000024,Go,space,0.4167226999998092,Correct,False,False
92,1.0,92,169.95941270000185,Go,space,0.6165509999991627,Correct,False,False
93,1.0,93,170.95843309999327,No_go,,0.0,Correct,False,False
94,1.0,94,171.95768160000443,Go,space,0.3523283999966224,Correct,False,False
95,1.0,95,172.95687039999757,Go,space,0.502444400000968,Correct,False,False
96,1.0,96,173.95590410000295,Go,space,0.7505400999943959,Correct,False,False
97,1.0,97,174.95476359999157,Go,space,0.7337684999947669,Correct,False,False
98,1.0,98,175.95309100000304,Go,,0.0,Incorrect,True,False
99,1.0,99,176.9529235999944,Go,space,0.3005653000000166,Correct,False,False
100,1.0,100,177.95228769999812,Go,space,0.3510719000041717,Correct,False,False
101,1.0,101,178.95155529999465,Go,space,0.4665585000038845,Correct,False,False
102,1.0,102,179.95053790000384,Go,space,0.5833289000001969,Correct,False,False
103,1.0,103,180.94903129999875,No_go,,0.0,Correct,False,False
104,1.0,104,181.9488124000054,Go,space,0.500177399997483,Correct,False,False
105,1.0,105,182.947594199999,Go,space,0.617285800006357,Correct,False,False
106,1.0,106,183.9458345000021,Go,space,0.6185911999928067,Correct,False,False
107,1.0,107,184.94594679999864,Go,space,0.6499627000011969,Correct,False,False
108,1.0,108,185.94501749999472,Go,space,0.6167769000021508,Correct,False,False
109,1.0,109,186.94406680000247,No_go,,0.0,Correct,False,False
110,1.0,110,187.9429176999984,Go,space,0.5995726999972248,Correct,False,False
111,1.0,111,188.941576600002,Go,space,0.6166614000103436,Correct,False,False
112,1.0,112,189.9413704000035,Go,space,0.7192520999960834,Correct,False,False
113,1.0,113,190.939890499998,No_go,,0.0,Correct,False,False
114,1.0,114,191.93893160000152,No_go,,0.0,Correct,False,False
115,1.0,115,192.93838269999836,Go,space,0.4508426999964285,Correct,False,False
116,1.0,116,193.93789729999844,Go,space,0.5503492999996524,Correct,False,False
117,1.0,117,194.93667539999296,Go,space,0.63363229999959,Correct,False,False
118,1.0,118,195.9357656999928,No_go,,0.0,Correct,False,False
119,1.0,119,196.934834300002,Go,space,0.5827421999856597,Correct,False,False
120,1.0,120,197.93349179999493,Go,space,0.5834559000068111,Correct,False,False
121,1.0,121,198.9326754999929,Go,space,0.567548999999417,Correct,False,False
122,1.0,122,199.93198920000577,Go,space,0.5999668000004021,Correct,False,False
123,1.0,123,200.93084709999675,Go,space,0.4830560999980662,Correct,False,False
124,1.0,124,201.9303280000022,Go,space,0.4997015999979339,Correct,False,False
125,1.0,125,202.9292074999976,No_go,,0.0,Correct,False,False
126,1.0,126,203.9277478000004,No_go,space,0.4167995000025257,Incorrect,False,True
127,1.0,127,204.92663329999775,No_go,,0.0,Correct,False,False
128,1.0,128,205.92611529999704,Go,space,0.4493851999868639,Correct,False,False
129,1.0,129,206.92507870000557,No_go,,0.0,Correct,False,False
130,1.0,130,207.9239857999928,Go,space,0.4006370999995852,Correct,False,False
131,1.0,131,208.92333930000316,Go,space,0.5333250999974553,Correct,False,False
132,1.0,132,209.9225271000032,Go,space,0.434289600001648,Correct,False,False
133,1.0,133,210.92148409999209,Go,space,0.3499140000058105,Correct,False,False
134,1.0,134,211.9201480000047,No_go,,0.0,Correct,False,False
135,2.0,135,225.59684440000277,Go,space,0.6265539000014542,Correct,False,False
136,2.0,136,226.58912350000173,Go,space,0.5174814000056358,Correct,False,False
137,2.0,137,227.58874110000036,Go,space,0.6000196000095457,Correct,False,False
138,2.0,138,228.5879507999925,Go,space,0.6327451000106521,Correct,False,False
139,2.0,139,229.58774449999328,No_go,,0.0,Correct,False,False
140,2.0,140,230.58624489999784,Go,space,0.5330962000007275,Correct,False,False
141,2.0,141,231.5846367000049,Go,space,0.5508155999996234,Correct,False,False
142,2.0,142,232.5836544000049,Go,space,0.6007660000032047,Correct,False,False
143,2.0,143,233.58282429999963,No_go,,0.0,Correct,False,False
144,2.0,144,234.58234470000025,Go,space,0.4011995000037132,Correct,False,False
145,2.0,145,235.58174399999552,Go,space,0.4327727000054437,Correct,False,False
146,2.0,146,236.58071579999523,No_go,,0.0,Correct,False,False
147,2.0,147,237.5796046000032,Go,space,0.3338886999990791,Correct,False,False
148,2.0,148,238.5785382000031,Go,space,0.4339108000131091,Correct,False,False
149,2.0,149,239.5774001999962,Go,space,0.3843538000073749,Correct,False,False
150,2.0,150,240.5760350000055,No_go,,0.0,Correct,False,False
151,2.0,151,241.5757295999938,Go,space,0.3502846999908797,Correct,False,False
152,2.0,152,242.5749575999944,No_go,space,0.3505884000041988,Incorrect,False,True
153,2.0,153,243.57428329999675,Go,space,0.3997758999903453,Correct,False,False
154,2.0,154,244.57295210000305,No_go,,0.0,Correct,False,False
155,2.0,155,245.5718640999985,Go,space,0.3334304000018164,Correct,False,False
156,2.0,156,246.5718096999917,Go,space,0.4497648999968078,Correct,False,False
157,2.0,157,247.5703113000054,Go,space,0.4015651000081561,Correct,False,False
158,2.0,158,248.5688652999961,Go,space,0.3664214000018546,Correct,False,False
159,2.0,159,249.5679956999957,Go,space,0.4340922999981558,Correct,False,False
160,2.0,160,250.56782450000173,Go,space,0.4177102000103332,Correct,False,False
161,2.0,161,251.565901199996,Go,space,0.3676024000014877,Correct,False,False
162,2.0,162,252.5659086999949,Go,space,0.3498050999914994,Correct,False,False
163,2.0,163,253.56483339999977,Go,space,0.399819899990689,Correct,False,False
164,2.0,164,254.56323869999324,Go,space,0.3691007999877911,Correct,False,False
165,2.0,165,255.56208449999397,Go,space,0.4003167000046232,Correct,False,False
166,2.0,166,256.56220620000386,Go,space,0.3502435999980662,Correct,False,False
167,2.0,167,257.5612630999967,Go,space,0.4007794999924954,Correct,False,False
168,2.0,168,258.56045659999654,Go,space,0.3998282999964431,Correct,False,False
169,2.0,169,259.5598362000019,Go,space,0.3998535999999149,Correct,False,False
170,2.0,170,260.5583520999935,Go,space,0.3160161999985575,Correct,False,False
171,2.0,171,261.55670180000016,Go,space,0.3674836000136565,Correct,False,False
172,2.0,172,262.5572408000007,Go,space,0.3489064999885158,Correct,False,False
173,2.0,173,263.5552289000043,Go,space,0.3836422000022139,Correct,False,False
174,2.0,174,264.5538385999971,No_go,,0.0,Correct,False,False
175,2.0,175,265.55352349999885,No_go,space,0.3007815000019036,Incorrect,False,True
176,2.0,176,266.55310419999296,Go,space,0.3159051999973599,Correct,False,False
177,2.0,177,267.55201109999325,Go,space,0.350277499994263,Correct,False,False
178,2.0,178,268.5502955999982,No_go,space,0.317755699987174,Incorrect,False,True
179,2.0,179,269.5498058999947,Go,space,0.3836045000061858,Correct,False,False
180,2.0,180,270.5487790000043,Go,space,0.3335585000022547,Correct,False,False
181,2.0,181,271.5485217999958,Go,space,0.3322958000062499,Correct,False,False
182,2.0,182,272.54634590000205,No_go,space,0.319332500002929,Incorrect,False,True
183,2.0,183,273.5459797999938,Go,space,0.583286599998246,Correct,False,False
184,2.0,184,274.545365900005,Go,space,0.4838272999913897,Correct,False,False
185,2.0,185,275.54464700000244,Go,space,0.4167536000022664,Correct,False,False
186,2.0,186,276.54365079999843,No_go,,0.0,Correct,False,False
187,2.0,187,277.54268699999375,Go,space,0.3671316000109073,Correct,False,False
188,2.0,188,278.5419228999963,No_go,space,0.3335143000003882,Incorrect,False,True
189,2.0,189,279.5411090999987,Go,space,0.2994936000031885,Correct,False,False
190,2.0,190,280.5393941999937,Go,space,0.3010496000060811,Correct,False,False
191,2.0,191,281.5389301999967,Go,space,0.3332542999996803,Correct,False,False
192,2.0,192,282.5380814999953,Go,space,0.2667407999979332,Correct,False,False
193,2.0,193,283.5369578999962,Go,space,0.2832513000030303,Correct,False,False
194,2.0,194,284.53618989999813,No_go,space,0.3329709999961778,Incorrect,False,True
195,2.0,195,285.5352800999972,No_go,space,0.3665102999948431,Incorrect,False,True
196,2.0,196,286.5340428999916,Go,space,0.4668864000122994,Correct,False,False
197,2.0,197,287.53293489999487,Go,space,0.3503264000028139,Correct,False,False
198,2.0,198,288.5318025000015,Go,space,0.317262299999129,Correct,False,False
199,2.0,199,289.5305434000038,Go,space,0.367081300006248,Correct,False,False
200,2.0,200,290.5298191000038,Go,space,0.333932100009406,Correct,False,False
201,2.0,201,291.52891209999507,Go,space,0.3354740999930072,Correct,False,False
202,2.0,202,292.52794109999377,Go,space,0.3659589000017149,Correct,False,False
203,2.0,203,293.5266208999965,Go,space,0.3353417000034824,Correct,False,False
204,2.0,204,294.52576780000527,Go,space,0.3182925000000978,Correct,False,False
205,2.0,205,295.525080499996,Go,space,0.3833696999936364,Correct,False,False
206,2.0,206,296.5242468999932,Go,space,0.4009578999975929,Correct,False,False
207,2.0,207,297.52329359999567,Go,space,0.4339016000012634,Correct,False,False
208,2.0,208,298.5249250000052,Go,space,0.313796899994486,Correct,False,False
209,2.0,209,299.5218093000003,Go,space,0.4007166999945184,Correct,False,False
210,2.0,210,300.5218540999922,Go,space,0.3323139999993145,Correct,False,False
211,2.0,211,301.5200007999956,No_go,space,0.3330764999991515,Incorrect,False,True
212,2.0,212,302.5184357999969,Go,space,0.4171912000019802,Correct,False,False
213,2.0,213,303.5176852000004,Go,space,0.3501749999995809,Correct,False,False
214,2.0,214,304.5166720999987,Go,space,0.2836311999999452,Correct,False,False
215,2.0,215,305.51630119999754,Go,space,0.3332459999946877,Correct,False,False
216,2.0,216,306.51531629999226,No_go,space,0.3830519000039203,Incorrect,False,True
217,2.0,217,307.51425069999823,No_go,space,0.2835308000067016,Incorrect,False,True
218,2.0,218,308.5130098999944,Go,space,0.4009968000027584,Correct,False,False
219,2.0,219,309.5117098000046,Go,space,0.4172042999998666,Correct,False,False
220,2.0,220,310.510901799993,No_go,space,0.3335630999936256,Incorrect,False,True
221,2.0,221,311.5103560999996,Go,space,0.467228099994827,Correct,False,False
222,2.0,222,312.5095081000036,Go,space,0.533422900000005,Correct,False,False
223,2.0,223,313.5090363000054,Go,space,0.4669551999977557,Correct,False,False
224,2.0,224,314.5084783999919,Go,space,0.5659799999993993,Correct,False,False
225,3.0,225,353.6686670999916,No_go,,0.0,Correct,False,False
226,3.0,226,354.6705609999917,Go,space,0.3826714000024367,Correct,False,False
227,3.0,227,355.66916659999697,Go,space,0.4005542000086279,Correct,False,False
228,3.0,228,356.6686576999928,Go,space,0.4831953999964753,Correct,False,False
229,3.0,229,357.6677731999953,Go,space,0.3664963000046555,Correct,False,False
230,3.0,230,358.666347099992,Go,space,0.3340058000030694,Correct,False,False
231,3.0,231,359.66599660000065,Go,space,0.3170544000022346,Correct,False,False
232,3.0,232,360.6647590999928,Go,space,0.4342690999910701,Correct,False,False
233,3.0,233,361.66412899999705,Go,space,0.4662475999939488,Correct,False,False
234,3.0,234,362.6631181999983,Go,space,0.5019763000018429,Correct,False,False
235,3.0,235,363.663931499992,Go,space,0.5473200999986148,Correct,False,False
236,3.0,236,364.66101609999896,Go,space,0.6177744000015082,Correct,False,False
237,3.0,237,365.6601121999993,Go,space,0.6335531999939121,Correct,False,False
238,3.0,238,366.6595344999951,Go,space,0.7000646000087727,Correct,False,False
239,3.0,239,367.6585499999928,No_go,,0.0,Correct,False,False
240,3.0,240,368.6572937000019,Go,space,0.4169628999952692,Correct,False,False
241,3.0,241,369.65589080000063,Go,space,0.5020618999988073,Correct,False,False
242,3.0,242,370.6545509999996,Go,space,0.7161085999978241,Correct,False,False
243,3.0,243,371.65497160000086,Go,space,0.5496808000025339,Correct,False,False
244,3.0,244,372.6534015999932,Go,space,0.3504625000059604,Correct,False,False
245,3.0,245,373.6528202000045,Go,space,0.3666611000080593,Correct,False,False
246,3.0,246,374.6518851000001,Go,space,0.3180568999960087,Correct,False,False
247,3.0,247,375.6508080000058,Go,space,0.5168658000038704,Correct,False,False
248,3.0,248,376.6493868999969,Go,space,0.5839911999937613,Correct,False,False
249,3.0,249,377.649007,Go,space,0.6666266999964137,Correct,False,False
250,3.0,250,378.6482956999971,Go,space,0.6167480000003707,Correct,False,False
251,3.0,251,379.6472252999956,No_go,,0.0,Correct,False,False
252,3.0,252,380.64658499999496,Go,space,0.516311700004735,Correct,False,False
253,3.0,253,381.6451378999918,No_go,,0.0,Correct,False,False
254,3.0,254,382.6444062999944,No_go,,0.0,Correct,False,False
255,3.0,255,383.64336610000464,Go,space,0.3672275999997509,Correct,False,False
256,3.0,256,384.6426120999968,Go,space,0.5009127000084845,Correct,False,False
257,3.0,257,385.6414908000006,No_go,,0.0,Correct,False,False
258,3.0,258,386.64086129999487,No_go,,0.0,Correct,False,False
259,3.0,259,387.6399020999961,No_go,space,0.4330825000070035,Incorrect,False,True
260,3.0,260,388.6389714999968,Go,space,0.4162222000013571,Correct,False,False
261,3.0,261,389.6379377999983,Go,space,0.5168757000064943,Correct,False,False
262,3.0,262,390.63664840000274,No_go,,0.0,Correct,False,False
263,3.0,263,391.6358558999928,Go,space,0.4504618000064511,Correct,False,False
264,3.0,264,392.63445329999377,Go,space,0.6501252000016393,Correct,False,False
265,3.0,265,393.6334384999936,Go,space,0.717215299999225,Correct,False,False
266,3.0,266,394.6330067999952,Go,space,0.7163021000014851,Correct,False,False
267,3.0,267,395.6320679999917,Go,space,0.7838776999997208,Correct,False,False
268,3.0,268,396.63075599999866,Go,space,0.7506094999989728,Correct,False,False
269,3.0,269,397.6300601999974,Go,space,0.733453599998029,Correct,False,False
270,3.0,270,398.62937399999646,Go,space,0.7831197000050452,Correct,False,False
271,3.0,271,399.6284596000041,Go,space,0.4665708999964408,Correct,False,False
272,3.0,272,400.62844070000574,Go,space,0.6322896000056062,Correct,False,False
273,3.0,273,401.6267576999962,Go,space,0.750364300009096,Correct,False,False
274,3.0,274,402.6257220999978,Go,space,0.7166220999934012,Correct,False,False
275,3.0,275,403.6248179999966,Go,space,0.6998643999977503,Correct,False,False
276,3.0,276,404.6240435999935,Go,space,0.733457999987877,Correct,False,False
277,3.0,277,405.6227663000027,No_go,,0.0,Correct,False,False
278,3.0,278,406.6218458999938,Go,space,0.4338044999894919,Correct,False,False
279,3.0,279,407.62098920000426,No_go,,0.0,Correct,False,False
280,3.0,280,408.6198408000055,No_go,,0.0,Correct,False,False
281,3.0,281,409.6193954000046,No_go,,0.0,Correct,False,False
282,3.0,282,410.61856519999856,No_go,,0.0,Correct,False,False
283,3.0,283,411.6168797999999,Go,space,0.4343061999970814,Correct,False,False
284,3.0,284,412.6160398999928,Go,space,0.5166852999973344,Correct,False,False
285,3.0,285,413.6156503999955,Go,space,0.6003422999929171,Correct,False,False
286,3.0,286,414.6148366999987,Go,space,0.7329468999960227,Correct,False,False
287,3.0,287,415.6130624999933,Go,space,0.7674143000040203,Correct,False,False
288,3.0,288,416.61281370000506,Go,space,0.7830449000030058,Correct,False,False
289,3.0,289,417.611367599995,Go,space,0.7836033999919891,Correct,False,False
290,3.0,290,418.61048269999446,Go,space,0.8332133000076283,Correct,False,False
291,3.0,291,419.60906679999607,No_go,,0.0,Correct,False,False
292,3.0,292,420.6084189999965,Go,space,0.5005251999973552,Correct,False,False
293,3.0,293,421.608387500004,Go,space,0.6502252999925986,Correct,False,False
294,3.0,294,422.6071427999996,Go,space,0.6834609000070486,Correct,False,False
295,3.0,295,423.6061976000056,Go,space,0.7329281000129413,Correct,False,False
296,3.0,296,424.604886400004,No_go,,0.0,Correct,False,False
297,3.0,297,425.6036903999921,No_go,,0.0,Correct,False,False
298,3.0,298,426.6033507999964,No_go,,0.0,Correct,False,False
299,3.0,299,427.6028292999981,Go,space,0.4166122000024188,Correct,False,False
300,3.0,300,428.6013648999942,Go,space,0.6496346000058111,Correct,False,False
301,3.0,301,429.60084830000415,Go,space,0.7325490999937756,Correct,False,False
302,3.0,302,430.5997837000032,Go,space,0.7830560000002151,Correct,False,False
303,3.0,303,431.5985794000008,Go,space,0.88257010000234,Correct,False,False
304,3.0,304,432.5978309000057,Go,space,0.8993153000046732,Correct,False,False
305,3.0,305,433.59722739999415,Go,space,0.7991580999951111,Correct,False,False
306,3.0,306,434.5953008999932,Go,,0.0,Incorrect,True,False
307,3.0,307,435.5948952000035,Go,space,0.1006936999910976,Correct,False,False
308,3.0,308,436.59399850000045,Go,space,0.2512835999950766,Correct,False,False
309,3.0,309,437.5931356999936,Go,space,0.5511454000079539,Correct,False,False
310,3.0,310,438.5915209999948,Go,space,0.6337581999978283,Correct,False,False
311,3.0,311,439.591345199995,Go,space,0.683023100005812,Correct,False,False
312,3.0,312,440.590371600003,Go,space,0.7835252999939257,Correct,False,False
313,3.0,313,441.5897483000008,Go,space,0.7664749999967171,Correct,False,False
314,3.0,314,442.5885564000055,Go,space,0.8499376999970991,Correct,False,False
315,4.0,315,445.9350737999921,Go,space,0.8004866999981459,Correct,False,False
316,4.0,316,446.9327922999946,Go,space,0.7345044999965467,Correct,False,False
317,4.0,317,447.9335076999996,Go,space,0.7166827000037301,Correct,False,False
318,4.0,318,448.9324524999975,No_go,,0.0,Correct,False,False
319,4.0,319,449.9307640000043,No_go,,0.0,Correct,False,False
320,4.0,320,450.9304355000058,Go,space,0.4334553999942727,Correct,False,False
321,4.0,321,451.9299423000048,Go,space,0.5498480999958701,Correct,False,False
322,4.0,322,452.928732100001,No_go,,0.0,Correct,False,False
323,4.0,323,453.92772920000425,Go,space,0.6353623000031803,Correct,False,False
324,4.0,324,454.9265276999941,No_go,,0.0,Correct,False,False
325,4.0,325,455.9259505999944,Go,space,0.6500630999944406,Correct,False,False
326,4.0,326,456.9244289999915,Go,space,0.7337142000033055,Correct,False,False
327,4.0,327,457.9235819000023,Go,space,0.6850217000028351,Correct,False,False
328,4.0,328,458.9231151999993,Go,space,0.7166236999910325,Correct,False,False
329,4.0,329,459.92199499999697,No_go,,0.0,Correct,False,False
330,4.0,330,460.9215696000029,Go,space,0.6829540000035195,Correct,False,False
331,4.0,331,461.920383100005,No_go,,0.0,Correct,False,False
332,4.0,332,462.91967610000574,Go,space,0.6330502000055276,Correct,False,False
333,4.0,333,463.9190539999981,Go,space,0.8165375999960816,Correct,False,False
334,4.0,334,464.9177006999962,No_go,,0.0,Correct,False,False
335,4.0,335,465.9166926000034,Go,space,0.6996491000027163,Correct,False,False
336,4.0,336,466.91547989999526,Go,space,0.6343858000036562,Correct,False,False
337,4.0,337,467.9149535000033,Go,space,0.6508396999997785,Correct,False,False
338,4.0,338,468.9131503999961,Go,space,0.6175580999988597,Correct,False,False
339,4.0,339,469.9127640999941,Go,space,0.5667134999966947,Correct,False,False
340,4.0,340,470.9120910999918,Go,space,0.6336581000068691,Correct,False,False
341,4.0,341,471.9109399000008,Go,space,0.6170486999908462,Correct,False,False
342,4.0,342,472.9105159000028,Go,space,0.5835692999971798,Correct,False,False
343,4.0,343,473.90908769999805,Go,space,0.5332571000035387,Correct,False,False
344,4.0,344,474.9083710999985,Go,space,0.7165289999975357,Correct,False,False
345,4.0,345,475.9074700000056,Go,space,0.6829206000111299,Correct,False,False
346,4.0,346,476.9058355000016,Go,space,0.7341239999950631,Correct,False,False
347,4.0,347,477.9052551000059,Go,space,0.7176833999983501,Correct,False,False
348,4.0,348,478.9047120000032,No_go,,0.0,Correct,False,False
349,4.0,349,479.9038052999968,Go,space,0.5498451000021305,Correct,False,False
350,4.0,350,480.9023836999986,Go,space,0.6504660999926273,Correct,False,False
351,4.0,351,481.9017359999998,No_go,,0.0,Correct,False,False
352,4.0,352,482.90086029999657,No_go,,0.0,Correct,False,False
353,4.0,353,483.8990784000053,Go,space,0.3687232000083895,Correct,False,False
354,4.0,354,484.89883279999776,Go,space,0.5336550999927567,Correct,False,False
355,4.0,355,485.8978436000034,Go,space,0.5345955000084359,Correct,False,False
356,4.0,356,486.896459399999,No_go,,0.0,Correct,False,False
357,4.0,357,487.8972802999924,Go,space,0.5659096000017598,Correct,False,False
358,4.0,358,488.8952388000034,Go,space,0.5840314999950351,Correct,False,False
359,4.0,359,489.89409149999847,Go,space,0.6839773999963654,Correct,False,False
360,4.0,360,490.8932648000045,No_go,,0.0,Correct,False,False
361,4.0,361,491.8926705000049,Go,space,0.5835340999910841,Correct,False,False
362,4.0,362,492.8913493,Go,space,0.6500012000033166,Correct,False,False
363,4.0,363,493.8906500000012,Go,space,0.6499552000022959,Correct,False,False
364,4.0,364,494.8894735999929,Go,space,0.6165498000045773,Correct,False,False
365,4.0,365,495.8886534000048,No_go,,0.0,Correct,False,False
366,4.0,366,496.8879750000051,Go,space,0.5992217000020901,Correct,False,False
367,4.0,367,497.88631339999847,Go,space,0.6004520999995293,Correct,False,False
368,4.0,368,498.88569349999307,Go,space,0.6005531999981031,Correct,False,False
369,4.0,369,499.8848890999943,Go,space,0.6175341000052867,Correct,False,False
370,4.0,370,500.8838790000009,Go,space,0.6013908000022639,Correct,False,False
371,4.0,371,501.8836005000048,Go,space,0.7659509000077378,Correct,False,False
372,4.0,372,502.8827196999919,No_go,,0.0,Correct,False,False
373,4.0,373,503.8807057999948,Go,space,0.6335347999993246,Correct,False,False
374,4.0,374,504.8807432000031,Go,space,0.601931400000467,Correct,False,False
375,4.0,375,505.8795514999947,Go,space,0.6498351999907754,Correct,False,False
376,4.0,376,506.8784059000027,Go,space,0.8170780999935232,Correct,False,False
377,4.0,377,507.87779020000016,Go,,0.0,Incorrect,True,False
378,4.0,378,508.8765353000053,Go,space,0.4003771999996388,Correct,False,False
379,4.0,379,509.8753746000002,Go,space,0.4006900999956997,Correct,False,False
380,4.0,380,510.8742057999916,Go,space,0.3503455000027315,Correct,False,False
381,4.0,381,511.8735056000005,Go,space,0.3177970000106143,Correct,False,False
382,4.0,382,512.8727700000018,No_go,,0.0,Correct,False,False
383,4.0,383,513.8719273000024,Go,space,0.517315500008408,Correct,False,False
384,4.0,384,514.8708575999917,Go,space,0.650162799996906,Correct,False,False
385,4.0,385,515.8705095000041,Go,space,0.6997332000028109,Correct,False,False
386,4.0,386,516.8689550999989,Go,space,0.7172627999971155,Correct,False,False
387,4.0,387,517.8683738999971,No_go,,0.0,Correct,False,False
388,4.0,388,518.8669751999987,Go,space,0.5835181000002194,Correct,False,False
389,4.0,389,519.8656537999923,No_go,space,0.9674913000053492,Incorrect,False,True
390,4.0,390,520.8652537000016,Go,,0.0,Incorrect,True,False
391,4.0,391,521.8643919000024,Go,space,0.3339101000019582,Correct,False,False
392,4.0,392,522.8636854999932,Go,space,0.6335170999955153,Correct,False,False
393,4.0,393,523.8623511000042,Go,space,0.6337512000027345,Correct,False,False
394,4.0,394,524.8617490000033,Go,space,0.6502105000108713,Correct,False,False
395,4.0,395,525.8602606000059,Go,space,0.5503652000043076,Correct,False,False
396,4.0,396,526.8597498000017,Go,space,0.600358600000618,Correct,False,False
397,4.0,397,527.8585789999925,Go,space,0.6505949999991572,Correct,False,False
398,4.0,398,528.8572920000006,Go,space,0.8004768999962835,Correct,False,False
399,4.0,399,529.8572315000056,Go,space,0.5663226000033319,Correct,False,False
400,4.0,400,530.8558211000054,Go,space,0.5031498000025749,Correct,False,False
401,4.0,401,531.8553500999988,Go,space,0.532742600000347,Correct,False,False
402,4.0,402,532.8540315999999,Go,space,0.583454100007657,Correct,False,False
403,4.0,403,533.852991599997,Go,space,0.517257100000279,Correct,False,False
404,4.0,404,534.852155799992,No_go,,0.0,Correct,False,False
405,5.0,405,576.4805142999976,No_go,,0.0,Correct,False,False
406,5.0,406,577.4780902000057,Go,space,0.4013153999985661,Correct,False,False
407,5.0,407,578.4776316999923,No_go,,0.0,Correct,False,False
408,5.0,408,579.4757105000026,Go,space,0.384519300001557,Correct,False,False
409,5.0,409,580.4756037000043,Go,space,0.5503250000037951,Correct,False,False
410,5.0,410,581.4743176000047,Go,space,0.6515225000039209,Correct,False,False
411,5.0,411,582.4745435999939,Go,space,0.7002421999932267,Correct,False,False
412,5.0,412,583.473558800004,Go,space,0.7164476000034483,Correct,False,False
413,5.0,413,584.4724452999944,Go,space,0.6506168999912916,Correct,False,False
414,5.0,414,585.4706749000034,Go,space,0.6845192999899155,Correct,False,False
415,5.0,415,586.4703920000029,Go,space,0.7000200000038603,Correct,False,False
416,5.0,416,587.470321899993,Go,space,0.7654805000056513,Correct,False,False
417,5.0,417,588.4679972000013,Go,space,0.8018259999953443,Correct,False,False
418,5.0,418,589.4665812000021,Go,space,0.7680799999943702,Correct,False,False
419,5.0,419,590.4670422999916,Go,space,0.7848971000057645,Correct,False,False
420,5.0,420,591.4665301999921,Go,space,0.7663582999957725,Correct,False,False
421,5.0,421,592.464633800002,Go,space,0.8667540000024019,Correct,False,False
422,5.0,422,593.4642903000058,Go,space,0.7329592000023695,Correct,False,False
423,5.0,423,594.4615505999973,Go,space,0.7840788000030443,Correct,False,False
424,5.0,424,595.4617606999964,Go,space,0.683662399998866,Correct,False,False
425,5.0,425,596.4613327999978,Go,space,0.7161771999963094,Correct,False,False
426,5.0,426,597.4599884000054,Go,space,0.649995100000524,Correct,False,False
427,5.0,427,598.4592044000019,Go,space,0.7172378999966895,Correct,False,False
428,5.0,428,599.458272399992,No_go,,0.0,Correct,False,False
429,5.0,429,600.4574352000054,Go,space,0.6164218000049004,Correct,False,False
430,5.0,430,601.4567596999987,Go,space,0.6826300000102492,Correct,False,False
431,5.0,431,602.4556086999946,Go,space,0.765811199991731,Correct,False,False
432,5.0,432,603.4550796999974,No_go,,0.0,Correct,False,False
433,5.0,433,604.453617399995,Go,space,0.7664683000039076,Correct,False,False
434,5.0,434,605.4527256000001,No_go,,0.0,Correct,False,False
435,5.0,435,606.4519291000033,Go,space,0.4662227999942843,Correct,False,False
436,5.0,436,607.4512716000027,Go,space,0.6510898999986239,Correct,False,False
437,5.0,437,608.4500537999993,Go,space,0.8831803000066429,Correct,False,False
438,5.0,438,609.4493288999947,Go,,0.0,Incorrect,True,False
439,5.0,439,610.4485202999931,Go,space,0.4001020000141579,Correct,False,False
440,5.0,440,611.4475950000051,Go,space,0.7000467000034405,Correct,False,False
441,5.0,441,612.4464243999973,No_go,,0.0,Correct,False,False
442,5.0,442,613.4448568999942,Go,space,0.7181631999992533,Correct,False,False
443,5.0,443,614.4441716000001,No_go,,0.0,Correct,False,False
444,5.0,444,615.4434185999999,Go,space,0.5503670000034617,Correct,False,False
445,5.0,445,616.4423146000045,Go,space,0.8510759000055259,Correct,False,False
446,5.0,446,617.441903400002,Go,space,0.732958000007784,Correct,False,False
447,5.0,447,618.4408990999946,Go,space,0.9495430000097258,Correct,False,False
448,5.0,448,619.440417699996,Go,,0.0,Incorrect,True,False
449,5.0,449,620.4389120999986,Go,space,0.0177788000000873,Correct,False,False
450,5.0,450,621.4379850999976,Go,space,0.1172477000072831,Correct,False,False
451,5.0,451,622.4370345999923,Go,space,0.1670373000088147,Correct,False,False
452,5.0,452,623.4367219999986,No_go,space,0.2832466000108979,Incorrect,False,True
453,5.0,453,624.4351686000009,Go,space,0.3498862999986158,Correct,False,False
454,5.0,454,625.4342577999923,Go,space,0.5005152000085218,Correct,False,False
455,5.0,455,626.4328705999942,Go,space,0.5663832999998704,Correct,False,False
456,5.0,456,627.4320736999944,Go,space,0.5680207999976119,Correct,False,False
457,5.0,457,628.4316625999927,Go,space,0.5499263999954564,Correct,False,False
458,5.0,458,629.4306422999944,Go,space,0.5168115999986185,Correct,False,False
459,5.0,459,630.4295578000019,No_go,,0.0,Correct,False,False
460,5.0,460,631.4284571000026,Go,space,0.5169074000004912,Correct,False,False
461,5.0,461,632.4274832999945,Go,space,0.6000445999961812,Correct,False,False
462,5.0,462,633.4272161999979,No_go,,0.0,Correct,False,False
463,5.0,463,634.4256106999965,No_go,,0.0,Correct,False,False
464,5.0,464,635.4249183999927,Go,space,0.6169816999899922,Correct,False,False
465,5.0,465,636.4239263999916,Go,space,0.6335219999891706,Correct,False,False
466,5.0,466,637.422794500002,Go,space,0.6166650999948615,Correct,False,False
467,5.0,467,638.4221827000001,Go,space,0.6496577000070829,Correct,False,False
468,5.0,468,639.4212419999967,Go,space,0.6174371999950381,Correct,False,False
469,5.0,469,640.4206502000015,Go,space,0.7331112000101712,Correct,False,False
470,5.0,470,641.4192703000008,No_go,,0.0,Correct,False,False
471,5.0,471,642.4189933000016,No_go,,0.0,Correct,False,False
472,5.0,472,643.417549100006,Go,space,0.4178114000096684,Correct,False,False
473,5.0,473,644.416650500003,No_go,,0.0,Correct,False,False
474,5.0,474,645.4144382999948,No_go,,0.0,Correct,False,False
475,5.0,475,646.4148270000005,Go,space,0.4165250999940326,Correct,False,False
476,5.0,476,647.414005300001,Go,space,0.416721100002178,Correct,False,False
477,5.0,477,648.4124978000036,No_go,,0.0,Correct,False,False
478,5.0,478,649.4121263999987,Go,space,0.4332324999995762,Correct,False,False
479,5.0,479,650.4109519000049,Go,space,0.3500105999992229,Correct,False,False
480,5.0,480,651.4097373999975,Go,space,0.5667351999873063,Correct,False,False
481,5.0,481,652.4087213000021,Go,space,0.5345165000035195,Correct,False,False
482,5.0,482,653.4079115999921,Go,space,0.5336012000043411,Correct,False,False
483,5.0,483,654.4077305999963,Go,space,0.582890599995153,Correct,False,False
484,5.0,484,655.4064962999983,Go,space,0.5845696999895154,Correct,False,False
485,5.0,485,656.4053975999996,Go,space,0.5660576000082074,Correct,False,False
486,5.0,486,657.4042728000059,Go,space,0.5702620999945793,Correct,False,False
487,5.0,487,658.4034857999941,Go,space,0.5345722999918507,Correct,False,False
488,5.0,488,659.402285499993,Go,space,0.6004260000045178,Correct,False,False
489,5.0,489,660.4015613999945,Go,space,0.5352355000068201,Correct,False,False
490,5.0,490,661.4007786000002,Go,space,0.583497300001909,Correct,False,False
491,5.0,491,662.3992581999919,Go,space,0.5840688000025693,Correct,False,False
492,5.0,492,663.3987287000054,No_go,,0.0,Correct,False,False
493,5.0,493,664.3980022000032,Go,space,0.5497252000059234,Correct,False,False
494,5.0,494,665.3967827000015,No_go,,0.0,Correct,False,False
495,6.0,495,677.4510837999987,No_go,,0.0,Correct,False,False
496,6.0,496,678.450728900003,Go,space,0.5167684000043664,Correct,False,False
497,6.0,497,679.449740600001,Go,space,0.5336779000062961,Correct,False,False
498,6.0,498,680.4482793999923,Go,space,0.5672315999981947,Correct,False,False
499,6.0,499,681.4477546999988,Go,space,0.5671203999954741,Correct,False,False
500,6.0,500,682.4477925999963,Go,space,0.6829615000024205,Correct,False,False
501,6.0,501,683.4469645999925,Go,space,0.7490759999927832,Correct,False,False
502,6.0,502,684.4451303999958,Go,space,0.6670122000068659,Correct,False,False
503,6.0,503,685.444825700004,Go,space,0.5345841000089422,Correct,False,False
504,6.0,504,686.4443912999996,Go,space,0.5331205999973463,Correct,False,False
505,6.0,505,687.4432727999956,No_go,,0.0,Correct,False,False
506,6.0,506,688.4420111999934,No_go,,0.0,Correct,False,False
507,6.0,507,689.4414568999928,Go,space,0.448574699999881,Correct,False,False
508,6.0,508,690.4397634000052,Go,space,0.6007061999989673,Correct,False,False
509,6.0,509,691.4391791999951,Go,space,0.5681994000042323,Correct,False,False
510,6.0,510,692.438504100006,Go,space,0.534545699993032,Correct,False,False
511,6.0,511,693.4375081000035,No_go,,0.0,Correct,False,False
512,6.0,512,694.4366346000024,Go,space,0.5839144999918062,Correct,False,False
513,6.0,513,695.4355116999941,Go,space,0.5005195000121603,Correct,False,False
514,6.0,514,696.4345361000014,No_go,,0.0,Correct,False,False
515,6.0,515,697.4332581000053,No_go,space,0.4003468000009889,Incorrect,False,True
516,6.0,516,698.4325480999978,Go,space,0.3834066999988863,Correct,False,False
517,6.0,517,699.4316214999999,Go,space,0.4670052000001305,Correct,False,False
518,6.0,518,700.430863600006,No_go,,0.0,Correct,False,False
519,6.0,519,701.4295169999968,Go,space,0.4340437999926507,Correct,False,False
520,6.0,520,702.4288932999916,Go,space,0.5493885000032606,Correct,False,False
521,6.0,521,703.4282954999944,Go,space,0.5332323000038741,Correct,False,False
522,6.0,522,704.4275267000048,Go,space,0.4664910999999847,Correct,False,False
523,6.0,523,705.4260480999947,Go,space,0.350718700006837,Correct,False,False
524,6.0,524,706.4256891999976,Go,space,0.3334823999903165,Correct,False,False
525,6.0,525,707.4243450999929,Go,space,0.3500882999942405,Correct,False,False
526,6.0,526,708.4230453000055,Go,space,0.3496755000087432,Correct,False,False
527,6.0,527,709.4248807999975,Go,space,0.3312139999907231,Correct,False,False
528,6.0,528,710.4214472000021,Go,space,0.5005457000079332,Correct,False,False
529,6.0,529,711.4204214999918,Go,space,0.483721600001445,Correct,False,False
530,6.0,530,712.4195366000058,Go,space,0.5007136999920476,Correct,False,False
531,6.0,531,713.4185320999968,Go,space,0.5344269000052009,Correct,False,False
532,6.0,532,714.4176139000047,Go,space,0.5335398000024725,Correct,False,False
533,6.0,533,715.416412999999,Go,space,0.550644499991904,Correct,False,False
534,6.0,534,716.4159507000004,No_go,,0.0,Correct,False,False
535,6.0,535,717.4143763000029,No_go,,0.0,Correct,False,False
536,6.0,536,718.4141191999952,Go,space,0.4340914999920642,Correct,False,False
537,6.0,537,719.4133682999964,No_go,,0.0,Correct,False,False
538,6.0,538,720.4123489000049,Go,space,0.5999560000054771,Correct,False,False
539,6.0,539,721.4113849999994,Go,space,0.6333422000025166,Correct,False,False
540,6.0,540,722.4104357000033,Go,space,0.5664093999948818,Correct,False,False
541,6.0,541,723.4096198000043,Go,space,0.6331591000052867,Correct,False,False
542,6.0,542,724.4085952000023,Go,space,0.5999529999971855,Correct,False,False
543,6.0,543,725.4078044000053,No_go,,0.0,Correct,False,False
544,6.0,544,726.4065390000032,Go,space,0.5667804999975488,Correct,False,False
545,6.0,545,727.4057227000012,No_go,,0.0,Correct,False,False
546,6.0,546,728.4046736000018,Go,space,0.5176168000034522,Correct,False,False
547,6.0,547,729.403632600006,Go,space,0.4341328000009525,Correct,False,False
548,6.0,548,730.4031263999932,Go,space,0.3497844999947119,Correct,False,False
549,6.0,549,731.4020578999916,Go,space,0.3676467000041157,Correct,False,False
550,6.0,550,732.4010186999949,Go,space,0.5172490999975707,Correct,False,False
551,6.0,551,733.4000251999969,Go,space,0.4834445000014966,Correct,False,False
552,6.0,552,734.398552300001,Go,space,0.5678115000046091,Correct,False,False
553,6.0,553,735.3974913999991,Go,space,0.5514126000052784,Correct,False,False
554,6.0,554,736.3971910999971,Go,space,0.5185452000005171,Correct,False,False
555,6.0,555,737.3957054000057,No_go,space,0.4001987999945413,Incorrect,False,True
556,6.0,556,738.3945143000019,Go,space,0.4337966999883065,Correct,False,False
557,6.0,557,739.3939359999931,No_go,,0.0,Correct,False,False
558,6.0,558,740.3935038999916,Go,space,0.5010039000044344,Correct,False,False
559,6.0,559,741.3923443999956,Go,space,0.4840936999971745,Correct,False,False
560,6.0,560,742.3921943000023,Go,space,0.5492507000017213,Correct,False,False
561,6.0,561,743.3907741000003,Go,space,0.5339776000037091,Correct,False,False
562,6.0,562,744.3899149999925,Go,space,0.5829405000113184,Correct,False,False
563,6.0,563,745.388919399993,Go,space,0.4840642000053776,Correct,False,False
564,6.0,564,746.3878265999956,Go,space,0.3835951999935787,Correct,False,False
565,6.0,565,747.386711500003,No_go,space,0.3673462000006111,Incorrect,False,True
566,6.0,566,748.3861486999958,No_go,,0.0,Correct,False,False
567,6.0,567,749.3852030999988,Go,space,0.4995111000025645,Correct,False,False
568,6.0,568,750.3842844000028,Go,space,0.3835455999942496,Correct,False,False
569,6.0,569,751.383183900005,Go,space,0.3670830000046408,Correct,False,False
570,6.0,570,752.3822975999938,Go,space,0.3838383999973302,Correct,False,False
571,6.0,571,753.3828681000014,No_go,space,0.3158938999986276,Incorrect,False,True
572,6.0,572,754.3834157999954,No_go,,0.0,Correct,False,False
573,6.0,573,755.3792218000017,Go,space,0.3519908000016585,Correct,False,False
574,6.0,574,756.3787069999962,Go,space,0.2885400999948615,Correct,False,False
575,6.0,575,757.3770726999937,Go,space,0.3339922000013757,Correct,False,False
576,6.0,576,758.3764888000005,Go,space,0.3173836999922059,Correct,False,False
577,6.0,577,759.3758454000053,Go,space,0.350285000007716,Correct,False,False
578,6.0,578,760.3747676999919,Go,space,0.3514182000071741,Correct,False,False
579,6.0,579,761.3731820999965,Go,space,0.5009180999913951,Correct,False,False
580,6.0,580,762.3729101999925,Go,space,0.450106100004632,Correct,False,False
581,6.0,581,763.371897399993,Go,space,0.4498731999919982,Correct,False,False
582,6.0,582,764.3710576000012,Go,space,0.5870170000125654,Correct,False,False
583,6.0,583,765.3700997999986,Go,space,0.5669586000003619,Correct,False,False
584,6.0,584,766.3693906999979,Go,space,0.5498523999995086,Correct,False,False
