,block_index,trial,trial_onset(s),stimulus_type,resp_key,rt(s),correct,is_omission,is_comission
0,,0,60.44490929995664,Go,,0.0,Incorrect,True,False
1,,1,62.46934469998814,Go,space,0.6418605002108961,Correct,False,False
2,,2,63.47670580004342,No_go,,0.0,Correct,False,False
3,,3,65.49894879991189,No_go,,0.0,Correct,False,False
4,,4,67.51269809994847,Go,space,0.6272826998028904,Correct,False,False
5,,5,68.52197290002368,Go,space,0.7004484999924898,Correct,False,False
6,,6,69.53827530005947,No_go,,0.0,Correct,False,False
7,,7,71.56065210001543,Go,space,0.3088416999671608,Correct,False,False
8,,8,72.56955199991353,Go,,0.0,Incorrect,True,False
9,,9,74.59098279988393,Go,space,0.5260598999448121,Correct,False,False
10,,10,75.59942219988443,Go,,0.0,Incorrect,True,False
11,,11,77.62169719999656,Go,space,0.4755017999559641,Correct,False,False
12,,12,78.62908879993483,Go,,0.0,Incorrect,True,False
13,,13,80.65189519990236,Go,space,0.5590077999513596,Correct,False,False
14,,14,81.65972970006987,Go,space,0.4368363998364657,Correct,False,False
15,,15,82.67572780000046,No_go,space,0.3333362999837845,Incorrect,False,True
16,,16,83.69129380001687,Go,space,0.4867011001333594,Correct,False,False
17,,17,84.70717970002443,Go,space,0.4836533998604864,Correct,False,False
18,,18,85.72268830006942,No_go,space,0.3838388998992741,Incorrect,False,True
19,,19,86.73821119987406,Go,space,0.7335504998918623,Correct,False,False
20,,20,87.75434809993021,No_go,,0.0,Correct,False,False
21,,21,89.77590040001087,Go,space,0.3769841999746859,Correct,False,False
22,,22,90.78459329996258,Go,space,0.4844172999728471,Correct,False,False
23,,23,91.79956050007604,Go,space,0.5014003000687808,Correct,False,False
24,,24,92.81739010009916,No_go,,0.0,Correct,False,False
25,,25,94.8385751999449,Go,space,0.4757759999483824,Correct,False,False
26,,26,95.84675320005044,Go,space,0.6866321000270545,Correct,False,False
27,,27,96.86378589994274,Go,space,0.5817428999580443,Correct,False,False
28,,28,97.87777210003696,Go,space,0.4669776000082493,Correct,False,False
29,,29,98.89435359998606,Go,space,0.382586799794808,Correct,False,False
30,,30,99.90957270003857,Go,,0.0,Incorrect,True,False
31,,31,101.93218849995174,Go,space,0.3593894001096487,Correct,False,False
32,,32,102.94095740001649,Go,space,0.3495038000401109,Correct,False,False
33,,33,103.95552919991314,Go,space,0.3524014998693019,Correct,False,False
34,,34,104.97152439993806,Go,space,0.35045349993743,Correct,False,False
35,,35,105.987538699992,Go,space,0.4188204000238329,Correct,False,False
36,,36,107.00319249997848,Go,space,0.5671602999791503,Correct,False,False
37,,37,108.01837980002163,No_go,space,0.4173955000005662,Incorrect,False,True
38,,38,109.03454999998212,No_go,space,0.5005126998294145,Incorrect,False,True
39,,39,110.05377230001612,Go,space,0.5961986999027431,Correct,False,False
40,,40,111.06870649987832,Go,space,0.4490092999767512,Correct,False,False
41,,41,112.0815336999949,Go,space,0.4669971999246627,Correct,False,False
42,,42,113.0977256000042,Go,space,0.4498592000454664,Correct,False,False
43,,43,114.1128374999389,Go,space,0.4506778998766094,Correct,False,False
44,,44,115.12846029992215,Go,space,0.3219600000884384,Correct,False,False
45,1.0,45,136.07556200004183,Go,space,0.6514324001036584,Correct,False,False
46,1.0,46,137.0747934000101,Go,space,0.6018445999361575,Correct,False,False
47,1.0,47,138.0738915000111,Go,space,0.5521097998134792,Correct,False,False
48,1.0,48,139.07272789999843,Go,space,0.3680306000169366,Correct,False,False
49,1.0,49,140.07208519987762,Go,space,0.3336535999551415,Correct,False,False
50,1.0,50,141.07172779995017,No_go,space,0.3499082999769598,Incorrect,False,True
51,1.0,51,142.06982670002617,No_go,space,0.3337300000712275,Incorrect,False,True
52,1.0,52,143.06969089992344,No_go,space,0.4163872001226991,Incorrect,False,True
53,1.0,53,144.0683462000452,No_go,,0.0,Correct,False,False
54,1.0,54,145.06799679994583,Go,space,0.4654612999875098,Correct,False,False
55,1.0,55,146.06672200001776,Go,space,0.6836687000468373,Correct,False,False
56,1.0,56,147.06526229996234,No_go,space,0.3841064001899212,Incorrect,False,True
57,1.0,57,148.0638393999543,Go,space,0.4678760999813676,Correct,False,False
58,1.0,58,149.06352439988405,Go,,0.0,Incorrect,True,False
59,1.0,59,150.06261370005086,No_go,space,0.488314599962905,Incorrect,False,True
60,1.0,60,151.06258950009942,Go,space,0.449551299912855,Correct,False,False
61,1.0,61,152.0615991000086,Go,space,0.4330684999004006,Correct,False,False
62,1.0,62,153.0609708998818,No_go,space,0.449256399879232,Incorrect,False,True
63,1.0,63,154.0589117000345,No_go,,0.0,Correct,False,False
64,1.0,64,155.05846219998784,Go,space,0.5833076999988407,Correct,False,False
65,1.0,65,156.0569152000826,Go,space,0.4055167001206428,Correct,False,False
66,1.0,66,157.05602709995583,No_go,space,0.584147100104019,Incorrect,False,True
67,1.0,67,158.05581669998355,Go,space,0.5338049998972565,Correct,False,False
68,1.0,68,159.05411459994502,Go,space,0.6343549999874085,Correct,False,False
69,1.0,69,160.05381620000117,Go,space,0.4499753001146018,Correct,False,False
70,1.0,70,161.05351700005122,Go,space,0.5155130000784993,Correct,False,False
71,1.0,71,162.05180849996395,No_go,space,0.4210003998596221,Incorrect,False,True
72,1.0,72,163.05041759996675,Go,space,0.4841078999452293,Correct,False,False
73,1.0,73,164.05017339996994,Go,space,0.7332526999525726,Correct,False,False
74,1.0,74,165.04900679993443,Go,,0.0,Incorrect,True,False
75,1.0,75,166.04788700002246,Go,space,0.5164624000899494,Correct,False,False
76,1.0,76,167.04685700009577,Go,space,0.4833028998691588,Correct,False,False
77,1.0,77,168.0460647,Go,space,0.5002546000760049,Correct,False,False
78,1.0,78,169.0447474999819,Go,,0.0,Incorrect,True,False
79,1.0,79,170.04369960003532,No_go,,0.0,Correct,False,False
80,1.0,80,171.04341819998808,No_go,space,0.549553900025785,Incorrect,False,True
81,1.0,81,172.04254529997706,No_go,,0.0,Correct,False,False
82,1.0,82,173.0414684000425,Go,space,0.5993870999664068,Correct,False,False
83,1.0,83,174.04020559997298,Go,space,0.6342530001420528,Correct,False,False
84,1.0,84,175.0396789999213,Go,space,0.6332660999614745,Correct,False,False
85,1.0,85,176.0404256999027,Go,space,0.6978403001558036,Correct,False,False
86,1.0,86,177.0377531000413,Go,space,0.7543598001357168,Correct,False,False
87,1.0,87,178.0373791998718,Go,space,0.716148299863562,Correct,False,False
88,1.0,88,179.0356242000125,No_go,,0.0,Correct,False,False
89,1.0,89,180.03548910003155,Go,space,0.9325556000694633,Correct,False,False
90,1.0,90,181.03420319990252,Go,space,0.6179891999345273,Correct,False,False
91,1.0,91,182.03328619990495,Go,space,0.5173774999566376,Correct,False,False
92,1.0,92,183.03248640010133,Go,space,0.5828644998837262,Correct,False,False
93,1.0,93,184.0314209999051,Go,space,0.5834917998872697,Correct,False,False
94,1.0,94,185.03015020000748,Go,space,0.6336805000901222,Correct,False,False
95,1.0,95,186.02945820009336,Go,space,0.5173439998179674,Correct,False,False
96,1.0,96,187.0282240000088,Go,space,0.5347666998859495,Correct,False,False
97,1.0,97,188.02756939991377,Go,space,0.6344802998937666,Correct,False,False
98,1.0,98,189.02685849997212,Go,space,0.5700362999923527,Correct,False,False
99,1.0,99,190.02577669988383,Go,space,0.484072599792853,Correct,False,False
100,1.0,100,191.0245320999529,Go,space,0.5169170000590384,Correct,False,False
101,1.0,101,192.02451239991933,Go,space,0.5673221000470221,Correct,False,False
102,1.0,102,193.02337810001336,Go,space,0.6200862000696361,Correct,False,False
103,1.0,103,194.02223729994148,Go,space,0.6163705999497324,Correct,False,False
104,1.0,104,195.0210573000368,Go,space,0.5165913000237197,Correct,False,False
105,1.0,105,196.02042760001493,No_go,,0.0,Correct,False,False
106,1.0,106,197.01946930005212,Go,space,0.5496808001771569,Correct,False,False
107,1.0,107,198.01794920000248,Go,space,0.6167987999506295,Correct,False,False
108,1.0,108,199.01712319999933,Go,space,0.5502128000371158,Correct,False,False
109,1.0,109,200.02141769998707,Go,space,0.5956898999866098,Correct,False,False
110,1.0,110,201.0150776000228,Go,space,0.6011971000116318,Correct,False,False
111,1.0,111,202.01408550003543,Go,space,0.5833246000111103,Correct,False,False
112,1.0,112,203.0139864999801,No_go,,0.0,Correct,False,False
113,1.0,113,204.0131236999296,Go,space,0.5325434000696987,Correct,False,False
114,1.0,114,205.01194679993205,Go,space,0.4676731000654399,Correct,False,False
115,1.0,115,206.0104318000376,Go,space,0.4510393000673502,Correct,False,False
116,1.0,116,207.0094892999623,Go,space,0.5516715000849217,Correct,False,False
117,1.0,117,208.00933220004663,Go,space,0.5333485999144614,Correct,False,False
118,1.0,118,209.0074136999901,Go,space,0.5503489000257105,Correct,False,False
119,1.0,119,210.00743069988675,No_go,,0.0,Correct,False,False
120,1.0,120,211.00573419989087,Go,space,0.4837005001027137,Correct,False,False
121,1.0,121,212.00487109995447,No_go,,0.0,Correct,False,False
122,1.0,122,213.0058265000116,Go,space,0.4987548000644892,Correct,False,False
123,1.0,123,214.00290629989468,Go,space,0.4836933999322355,Correct,False,False
124,1.0,124,215.00247070007023,Go,space,0.4999164000619203,Correct,False,False
125,1.0,125,216.00193849997595,Go,space,0.4826775998808443,Correct,False,False
126,1.0,126,217.00020819995552,Go,space,0.4668256000149995,Correct,False,False
127,1.0,127,217.99955169996247,Go,space,0.4335694999899715,Correct,False,False
128,1.0,128,218.99913779995404,Go,space,0.4841156001202762,Correct,False,False
129,1.0,129,219.99876939994283,Go,space,0.4489509998820722,Correct,False,False
130,1.0,130,220.9965818000492,Go,space,0.4836315000429749,Correct,False,False
131,1.0,131,221.99593749991615,Go,space,0.4669242000672966,Correct,False,False
132,1.0,132,222.9944587999489,Go,space,0.383828500052914,Correct,False,False
133,1.0,133,223.99418010003865,Go,space,0.4500913999509066,Correct,False,False
134,1.0,134,224.9932502000593,Go,space,0.4671113998629153,Correct,False,False
135,2.0,135,234.4938411999028,Go,space,0.5895658999215811,Correct,False,False
136,2.0,136,235.48236900009212,Go,space,0.4335988000966608,Correct,False,False
137,2.0,137,236.4819227999542,Go,space,0.4001597999595105,Correct,False,False
138,2.0,138,237.4806645999197,Go,space,0.3686626998241991,Correct,False,False
139,2.0,139,238.48005379992537,Go,space,0.4505632999353111,Correct,False,False
140,2.0,140,239.47910459991544,Go,space,0.4529557998757809,Correct,False,False
141,2.0,141,240.47753129992637,Go,space,0.5238734998274595,Correct,False,False
142,2.0,142,241.47745210002176,Go,space,0.4501646000426262,Correct,False,False
143,2.0,143,242.47629059990868,No_go,,0.0,Correct,False,False
144,2.0,144,243.4751492999494,Go,space,0.4838239999953657,Correct,False,False
145,2.0,145,244.47425289987584,Go,space,0.4000740000046789,Correct,False,False
146,2.0,146,245.47323050000705,Go,space,0.3875335999764502,Correct,False,False
147,2.0,147,246.47163990000263,No_go,space,0.4185583998914808,Incorrect,False,True
148,2.0,148,247.47092620003968,Go,space,0.5005830000154674,Correct,False,False
149,2.0,149,248.47047329996715,Go,space,0.4668871001340449,Correct,False,False
150,2.0,150,249.469343099976,Go,space,0.3849039000924676,Correct,False,False
151,2.0,151,250.4683159999549,Go,space,0.5016616000793874,Correct,False,False
152,2.0,152,251.46751930005848,No_go,,0.0,Correct,False,False
153,2.0,153,252.46658560005017,Go,space,0.4168532998301089,Correct,False,False
154,2.0,154,253.4658212000504,Go,space,0.3836200998630374,Correct,False,False
155,2.0,155,254.4675563999917,Go,space,0.4640148000326007,Correct,False,False
156,2.0,156,255.46381959994324,Go,space,0.4671133998781442,Correct,False,False
157,2.0,157,256.4627825000789,No_go,,0.0,Correct,False,False
158,2.0,158,257.4624920000788,Go,space,0.4327527999412268,Correct,False,False
159,2.0,159,258.46157999988645,No_go,,0.0,Correct,False,False
160,2.0,160,259.46017910004593,Go,space,0.4500625000800937,Correct,False,False
161,2.0,161,260.46031589992344,Go,space,0.4160732000600546,Correct,False,False
162,2.0,162,261.4585178999696,Go,space,0.4167273000348359,Correct,False,False
163,2.0,163,262.4577281998936,Go,space,0.5166942998766899,Correct,False,False
164,2.0,164,263.4562075000722,Go,space,0.500741200055927,Correct,False,False
165,2.0,165,264.45597729994915,Go,space,0.4986668999772519,Correct,False,False
166,2.0,166,265.45474039996043,No_go,,0.0,Correct,False,False
167,2.0,167,266.4547502999194,No_go,,0.0,Correct,False,False
168,2.0,168,267.4537484999746,Go,space,0.4489831998944282,Correct,False,False
169,2.0,169,268.4522881000303,Go,space,0.3661118000745773,Correct,False,False
170,2.0,170,269.45363610005006,Go,space,0.3803586999420076,Correct,False,False
171,2.0,171,270.4501586998813,Go,space,0.3669029001612216,Correct,False,False
172,2.0,172,271.4496299000457,Go,,0.0,Incorrect,True,False
173,2.0,173,272.4489040998742,Go,space,0.4164949001278728,Correct,False,False
174,2.0,174,273.4476946000941,Go,space,0.4011029999237507,Correct,False,False
175,2.0,175,274.44724139990285,Go,space,0.3837884999811649,Correct,False,False
176,2.0,176,275.4452168000862,No_go,,0.0,Correct,False,False
177,2.0,177,276.4455607000273,No_go,space,0.4833255000412464,Incorrect,False,True
178,2.0,178,277.4440780999139,Go,space,0.5162943000905216,Correct,False,False
179,2.0,179,278.4427137998864,Go,space,0.4349191999062896,Correct,False,False
180,2.0,180,279.4423473998904,Go,space,0.4333174999337643,Correct,False,False
181,2.0,181,280.4409131999128,Go,space,0.4843005000147968,Correct,False,False
182,2.0,182,281.44028529990464,Go,space,0.5004432999994606,Correct,False,False
183,2.0,183,282.43897520005703,Go,space,0.4342096000909805,Correct,False,False
184,2.0,184,283.4391355998814,Go,space,0.5330262999050319,Correct,False,False
185,2.0,185,284.43776319990866,Go,space,0.5003349999897182,Correct,False,False
186,2.0,186,285.4361755999271,Go,space,0.4334754000883549,Correct,False,False
187,2.0,187,286.4357886000071,Go,space,0.4834791999310255,Correct,False,False
188,2.0,188,287.4349271999672,No_go,,0.0,Correct,False,False
189,2.0,189,288.4342960999347,No_go,,0.0,Correct,False,False
190,2.0,190,289.43265109998174,Go,space,0.4339570999145508,Correct,False,False
191,2.0,191,290.43146059988067,No_go,,0.0,Correct,False,False
192,2.0,192,291.4309662999585,Go,space,0.452819800004363,Correct,False,False
193,2.0,193,292.43038409994915,Go,space,0.4363195998594165,Correct,False,False
194,2.0,194,293.428728699917,Go,space,0.4337972998619079,Correct,False,False
195,2.0,195,294.4280099000316,Go,space,0.3665849000681191,Correct,False,False
196,2.0,196,295.4276876000222,Go,space,0.400443899910897,Correct,False,False
197,2.0,197,296.4258552999236,Go,space,0.350135900080204,Correct,False,False
198,2.0,198,297.42510330001824,No_go,space,0.3411934000905603,Incorrect,False,True
199,2.0,199,298.4241873000283,Go,space,0.4842795000877231,Correct,False,False
200,2.0,200,299.42635289998725,Go,space,0.414365499978885,Correct,False,False
201,2.0,201,300.4228572000284,Go,space,0.4204243998974561,Correct,False,False
202,2.0,202,301.4214866999537,Go,space,0.3674322001170367,Correct,False,False
203,2.0,203,302.41996630001813,Go,space,0.4507335000671446,Correct,False,False
204,2.0,204,303.4191489999648,No_go,space,0.3518717000260949,Incorrect,False,True
205,2.0,205,304.4185786000453,Go,space,0.365617300150916,Correct,False,False
206,2.0,206,305.41719989990816,Go,space,0.4169924999587238,Correct,False,False
207,2.0,207,306.41670499998145,No_go,,0.0,Correct,False,False
208,2.0,208,307.4150338000618,No_go,,0.0,Correct,False,False
209,2.0,209,308.4144109000917,Go,space,0.4191326000727713,Correct,False,False
210,2.0,210,309.41387640009634,Go,space,0.366712799994275,Correct,False,False
211,2.0,211,310.4127650000155,Go,space,0.3666296999435872,Correct,False,False
212,2.0,212,311.4119486999698,No_go,,0.0,Correct,False,False
213,2.0,213,312.4110455000773,Go,space,0.4170603000093251,Correct,False,False
214,2.0,214,313.4102980000898,Go,space,0.4331640999298543,Correct,False,False
215,2.0,215,314.41101019992493,Go,space,0.4343153000809252,Correct,False,False
216,2.0,216,315.40773879992776,Go,space,0.3828103998675942,Correct,False,False
217,2.0,217,316.40718279988505,No_go,space,0.3672603000886738,Incorrect,False,True
218,2.0,218,317.4064090999309,Go,space,0.4164436999708414,Correct,False,False
219,2.0,219,318.4054161000531,Go,space,0.3679614998400211,Correct,False,False
220,2.0,220,319.40431950008497,Go,space,0.3833864999469369,Correct,False,False
221,2.0,221,320.4038269999437,Go,space,0.4328739999327808,Correct,False,False
222,2.0,222,321.40268020005897,Go,space,0.4166381999384612,Correct,False,False
223,2.0,223,322.40110150002874,Go,space,0.4183861999772489,Correct,False,False
224,2.0,224,323.4010252999142,Go,space,0.3997420000378042,Correct,False,False
225,3.0,225,331.64288539998233,Go,space,0.6828729999251664,Correct,False,False
226,3.0,226,332.6424847000744,Go,space,0.3867599000222981,Correct,False,False
227,3.0,227,333.64124180004,Go,space,0.3506024999078363,Correct,False,False
228,3.0,228,334.6402666999493,Go,space,0.3337032999843359,Correct,False,False
229,3.0,229,335.6392886999529,Go,space,0.3511314000934362,Correct,False,False
230,3.0,230,336.64050219999626,Go,space,0.3151730999816209,Correct,False,False
231,3.0,231,337.63670310005546,Go,space,0.3339170999825001,Correct,False,False
232,3.0,232,338.63659909996204,No_go,,0.0,Correct,False,False
233,3.0,233,339.6352049000561,Go,space,0.3998845000751316,Correct,False,False
234,3.0,234,340.6346966000274,No_go,,0.0,Correct,False,False
235,3.0,235,341.6339908998925,Go,space,0.3996039999183267,Correct,False,False
236,3.0,236,342.63355019991286,Go,space,0.4328134001698345,Correct,False,False
237,3.0,237,343.63214850006625,Go,space,0.3667615000158548,Correct,False,False
238,3.0,238,344.6305164000951,No_go,,0.0,Correct,False,False
239,3.0,239,345.6304071000777,No_go,,0.0,Correct,False,False
240,3.0,240,346.6293766000308,Go,space,0.3840074001345783,Correct,False,False
241,3.0,241,347.6283648998942,Go,space,0.4040976001415401,Correct,False,False
242,3.0,242,348.6281713999342,Go,space,0.4351038001477718,Correct,False,False
243,3.0,243,349.6259739000816,Go,space,0.4502947998698801,Correct,False,False
244,3.0,244,350.6246861999389,No_go,,0.0,Correct,False,False
245,3.0,245,351.62458540010266,No_go,,0.0,Correct,False,False
246,3.0,246,352.62397300009616,Go,space,0.4369562999345362,Correct,False,False
247,3.0,247,353.6221471000463,Go,space,0.4167975999880582,Correct,False,False
248,3.0,248,354.6216964998748,Go,space,0.3837619998957962,Correct,False,False
249,3.0,249,355.6207224999089,No_go,,0.0,Correct,False,False
250,3.0,250,356.6197083001025,Go,space,0.4666617000475526,Correct,False,False
251,3.0,251,357.6193148999009,Go,space,0.3996870000846684,Correct,False,False
252,3.0,252,358.61827920004725,Go,space,0.3997555999085307,Correct,False,False
253,3.0,253,359.6165942000225,No_go,,0.0,Correct,False,False
254,3.0,254,360.6158394000959,Go,space,0.4170148000121116,Correct,False,False
255,3.0,255,361.6146712999325,Go,space,0.4006918999366462,Correct,False,False
256,3.0,256,362.6142800999805,Go,space,0.4004624998196959,Correct,False,False
257,3.0,257,363.6134071000852,No_go,,0.0,Correct,False,False
258,3.0,258,364.6121930000372,Go,space,0.4504664000123739,Correct,False,False
259,3.0,259,365.6119480000343,No_go,space,0.3699741000309586,Incorrect,False,True
260,3.0,260,366.6110590000171,No_go,space,0.4011469001416117,Incorrect,False,True
261,3.0,261,367.6093601998873,Go,space,0.4840857000090182,Correct,False,False
262,3.0,262,368.6086591000203,Go,,0.0,Incorrect,True,False
263,3.0,263,369.60779640008695,No_go,space,0.6496220999397337,Incorrect,False,True
264,3.0,264,370.60703340009786,Go,,0.0,Incorrect,True,False
265,3.0,265,371.6059695000295,Go,space,0.4674349999986589,Correct,False,False
266,3.0,266,372.6053138999269,Go,space,0.3847215001005679,Correct,False,False
267,3.0,267,373.6035780000966,Go,space,0.3339368999004364,Correct,False,False
268,3.0,268,374.60314060002565,Go,space,0.4009441998787224,Correct,False,False
269,3.0,269,375.6019866999704,Go,space,0.3687094999477267,Correct,False,False
270,3.0,270,376.60130500001833,No_go,,0.0,Correct,False,False
271,3.0,271,377.6005595000461,Go,space,0.4042415001895278,Correct,False,False
272,3.0,272,378.5994277999271,Go,space,0.4328204998746514,Correct,False,False
273,3.0,273,379.5986164999194,Go,space,0.4170125999953598,Correct,False,False
274,3.0,274,380.59765219991095,Go,space,0.3662994999904185,Correct,False,False
275,3.0,275,381.5967443999834,Go,space,0.3491525999270379,Correct,False,False
276,3.0,276,382.5952469999902,Go,space,0.3682926001492888,Correct,False,False
277,3.0,277,383.59377929987386,Go,space,0.3508048001676798,Correct,False,False
278,3.0,278,384.5933503000997,Go,space,0.3670324000995606,Correct,False,False
279,3.0,279,385.59297439991497,Go,space,0.3669310000259429,Correct,False,False
280,3.0,280,386.5922391000204,Go,space,0.3501562001183629,Correct,False,False
281,3.0,281,387.5912329999264,Go,space,0.4337698000017553,Correct,False,False
282,3.0,282,388.58982110000215,No_go,,0.0,Correct,False,False
283,3.0,283,389.58958910009824,Go,space,0.3829260000493377,Correct,False,False
284,3.0,284,390.5878719999455,Go,space,0.3678898001089692,Correct,False,False
285,3.0,285,391.5865171998739,Go,space,0.4841519000474363,Correct,False,False
286,3.0,286,392.5865416000597,Go,space,0.4166331000160426,Correct,False,False
287,3.0,287,393.5856989999302,Go,space,0.3350357001181692,Correct,False,False
288,3.0,288,394.5847197000403,No_go,space,0.3332756999880075,Incorrect,False,True
289,3.0,289,395.5842653999571,Go,space,0.3537995000369847,Correct,False,False
290,3.0,290,396.5829352999572,Go,space,0.3001164998859167,Correct,False,False
291,3.0,291,397.5820539998822,Go,space,0.3331893000286072,Correct,False,False
292,3.0,292,398.5811087000184,Go,space,0.3165100000333041,Correct,False,False
293,3.0,293,399.5802070000209,Go,space,0.3506744001060724,Correct,False,False
294,3.0,294,400.5790017999243,Go,space,0.3176694998983294,Correct,False,False
295,3.0,295,401.5778260000516,Go,space,0.3836527001112699,Correct,False,False
296,3.0,296,402.5765728999395,Go,space,0.3695588000118732,Correct,False,False
297,3.0,297,403.5760387000628,Go,space,0.3579834999982267,Correct,False,False
298,3.0,298,404.5790450999048,Go,space,0.3470022000838071,Correct,False,False
299,3.0,299,405.573934199987,No_go,,0.0,Correct,False,False
300,3.0,300,406.5733723999001,Go,space,0.4505968999583274,Correct,False,False
301,3.0,301,407.57220830000006,Go,space,0.3341109999455511,Correct,False,False
302,3.0,302,408.5713865999133,No_go,space,0.3338618001434952,Incorrect,False,True
303,3.0,303,409.5706621001009,Go,space,0.3504117999691516,Correct,False,False
304,3.0,304,410.56937370006926,Go,space,0.4341654998715967,Correct,False,False
305,3.0,305,411.5685618999414,Go,space,0.3834597000386566,Correct,False,False
306,3.0,306,412.56732039991766,Go,space,0.3506889001000672,Correct,False,False
307,3.0,307,413.5666718001012,Go,space,0.3049592999741435,Correct,False,False
308,3.0,308,414.5661428999156,Go,space,0.3676339001394808,Correct,False,False
309,3.0,309,415.5651867999695,Go,space,0.3167771000880748,Correct,False,False
310,3.0,310,416.5638284999877,Go,space,0.3718227001372725,Correct,False,False
311,3.0,311,417.56304710009135,Go,space,0.472431099973619,Correct,False,False
312,3.0,312,418.5625946000218,Go,space,0.4996869000606239,Correct,False,False
313,3.0,313,419.5608453999739,No_go,,0.0,Correct,False,False
314,3.0,314,420.5600582000334,Go,space,0.5006260999944061,Correct,False,False
315,4.0,315,427.23540850006975,Go,space,0.6018082001246512,Correct,False,False
316,4.0,316,428.2364795000758,Go,space,0.298773700138554,Correct,False,False
317,4.0,317,429.2355424000416,Go,space,0.2867580999154597,Correct,False,False
318,4.0,318,430.2336391999852,Go,space,0.2716417000629008,Correct,False,False
319,4.0,319,431.2339808000252,No_go,space,0.3330698001664132,Incorrect,False,True
320,4.0,320,432.2329364998732,Go,space,0.3491602998692542,Correct,False,False
321,4.0,321,433.23106290004216,Go,space,0.3500102998223156,Correct,False,False
322,4.0,322,434.2299116998911,Go,space,0.3209643999580294,Correct,False,False
323,4.0,323,435.2333998999093,Go,space,0.3972630000207573,Correct,False,False
324,4.0,324,436.2313637000043,Go,space,0.3794917999766767,Correct,False,False
325,4.0,325,437.2277035000734,Go,space,0.4170048998203128,Correct,False,False
326,4.0,326,438.2278070000466,Go,space,0.5490692001767457,Correct,False,False
327,4.0,327,439.2258564999793,No_go,space,0.3170912999194115,Incorrect,False,True
328,4.0,328,440.2248863000423,No_go,space,0.3507400001399219,Incorrect,False,True
329,4.0,329,441.2238483000546,Go,space,0.4174361999612301,Correct,False,False
330,4.0,330,442.2228832999244,No_go,space,0.3199825000483542,Incorrect,False,True
331,4.0,331,443.2223823000677,Go,space,0.3495992999523878,Correct,False,False
332,4.0,332,444.2217200000305,Go,space,0.3330050001386553,Correct,False,False
333,4.0,333,445.2210727999918,Go,space,0.3155940999276936,Correct,False,False
334,4.0,334,446.2190670999698,Go,space,0.3176173998508602,Correct,False,False
335,4.0,335,447.218600000022,Go,space,0.3161869999021292,Correct,False,False
336,4.0,336,448.2173444000073,No_go,,0.0,Correct,False,False
337,4.0,337,449.2161439000629,Go,space,0.3335124999284744,Correct,False,False
338,4.0,338,450.2155933000613,Go,space,0.3034608999732882,Correct,False,False
339,4.0,339,451.2149654000532,Go,space,0.3333765000570565,Correct,False,False
340,4.0,340,452.2140977999661,Go,space,0.3502950998954475,Correct,False,False
341,4.0,341,453.213387100026,Go,space,0.3182741999626159,Correct,False,False
342,4.0,342,454.2119495999068,Go,space,0.3529986999928951,Correct,False,False
343,4.0,343,455.2112988000736,Go,space,0.3841963000595569,Correct,False,False
344,4.0,344,456.209385199938,Go,space,0.2849973998963833,Correct,False,False
345,4.0,345,457.2087536000181,Go,space,0.3031316001433879,Correct,False,False
346,4.0,346,458.2084623998962,Go,space,0.3335713997948915,Correct,False,False
347,4.0,347,459.2074947000947,Go,space,0.3511091000400483,Correct,False,False
348,4.0,348,460.206424199976,Go,space,0.3346033000852912,Correct,False,False
349,4.0,349,461.2054856000468,Go,space,0.318962899968028,Correct,False,False
350,4.0,350,462.20445879991166,Go,space,0.3023836000356823,Correct,False,False
351,4.0,351,463.20332249999046,No_go,space,0.2898362998384982,Incorrect,False,True
352,4.0,352,464.2029005000368,No_go,space,0.350313700037077,Incorrect,False,True
353,4.0,353,465.20141159999184,Go,space,0.3679175998549908,Correct,False,False
354,4.0,354,466.2011478000786,Go,space,0.4167148000560701,Correct,False,False
355,4.0,355,467.20003459998406,Go,space,0.3672026998829096,Correct,False,False
356,4.0,356,468.1988101999741,Go,space,0.3337380001321435,Correct,False,False
357,4.0,357,469.1977019000333,No_go,space,0.2668317998759448,Incorrect,False,True
358,4.0,358,470.1969218000304,No_go,space,0.2836610001977533,Incorrect,False,True
359,4.0,359,471.1960299999919,Go,space,0.501028599916026,Correct,False,False
360,4.0,360,472.1957165999338,Go,space,0.3840332000982016,Correct,False,False
361,4.0,361,473.1943266999442,Go,space,0.4507044998463243,Correct,False,False
362,4.0,362,474.1933692998719,Go,space,0.5337648000568151,Correct,False,False
363,4.0,363,475.1928453999572,Go,space,0.5494556999765337,Correct,False,False
364,4.0,364,476.1919817000162,No_go,,0.0,Correct,False,False
365,4.0,365,477.1912596998736,Go,space,0.4994310999754816,Correct,False,False
366,4.0,366,478.1894604000263,Go,space,0.442808800144121,Correct,False,False
367,4.0,367,479.1888921000064,Go,space,0.5021783001720905,Correct,False,False
368,4.0,368,480.18839449994266,Go,space,0.4170578001067042,Correct,False,False
369,4.0,369,481.190588099882,Go,space,0.4012641999870538,Correct,False,False
370,4.0,370,482.1856702999212,Go,space,0.4004770000465214,Correct,False,False
371,4.0,371,483.1851031999104,Go,space,0.4997172001749277,Correct,False,False
372,4.0,372,484.184321800014,Go,space,0.5149685000069439,Correct,False,False
373,4.0,373,485.1848796999548,Go,space,0.4484474000055343,Correct,False,False
374,4.0,374,486.1822506999597,Go,space,0.483699900098145,Correct,False,False
375,4.0,375,487.18155049998313,Go,space,0.5003330998588353,Correct,False,False
376,4.0,376,488.18068529991433,Go,space,0.533958800137043,Correct,False,False
377,4.0,377,489.1795248999261,No_go,,0.0,Correct,False,False
378,4.0,378,490.177841699915,Go,space,0.4869074998423457,Correct,False,False
379,4.0,379,491.17750840005465,No_go,,0.0,Correct,False,False
380,4.0,380,492.1754495000933,No_go,,0.0,Correct,False,False
381,4.0,381,493.1751890000887,Go,space,0.4366001999005675,Correct,False,False
382,4.0,382,494.1742356000468,Go,space,0.4842183999717235,Correct,False,False
383,4.0,383,495.1741136000492,Go,space,0.5329481000080705,Correct,False,False
384,4.0,384,496.1722387999762,Go,space,0.5340150000993162,Correct,False,False
385,4.0,385,497.1722716998775,Go,space,0.5328087001107633,Correct,False,False
386,4.0,386,498.17137310002,Go,space,0.5330370001029223,Correct,False,False
387,4.0,387,499.16954010003246,Go,space,0.5183770000003278,Correct,False,False
388,4.0,388,500.1692093000747,No_go,,0.0,Correct,False,False
389,4.0,389,501.1679843999445,Go,space,0.500204199925065,Correct,False,False
390,4.0,390,502.16693699988537,No_go,,0.0,Correct,False,False
391,4.0,391,503.1658415999264,Go,space,0.5028810000512749,Correct,False,False
392,4.0,392,504.16498419991694,Go,space,0.3687730999663472,Correct,False,False
393,4.0,393,505.1643850998953,No_go,,0.0,Correct,False,False
394,4.0,394,506.164189199917,Go,space,0.432513500098139,Correct,False,False
395,4.0,395,507.1627017999999,Go,space,0.483227499993518,Correct,False,False
396,4.0,396,508.1610177999828,Go,space,0.4369487999938428,Correct,False,False
397,4.0,397,509.1604094000068,No_go,,0.0,Correct,False,False
398,4.0,398,510.1600142999087,Go,space,0.4160537999123335,Correct,False,False
399,4.0,399,511.1589559998829,Go,space,0.4336960997898131,Correct,False,False
400,4.0,400,512.1583106999751,No_go,,0.0,Correct,False,False
401,4.0,401,513.1576521000825,Go,space,0.3495378999505192,Correct,False,False
402,4.0,402,514.1563303999137,Go,space,0.4067359000910073,Correct,False,False
403,4.0,403,515.1554435000289,Go,space,0.484189199982211,Correct,False,False
404,4.0,404,516.1546324000228,Go,space,0.4681516001001,Correct,False,False
405,5.0,405,530.5834639999084,No_go,,0.0,Correct,False,False
406,5.0,406,531.5724698998965,Go,space,0.4008203998673707,Correct,False,False
407,5.0,407,532.572532299906,Go,space,0.366422199876979,Correct,False,False
408,5.0,408,533.5711288000457,Go,space,0.3330854000523686,Correct,False,False
409,5.0,409,534.5700215999968,Go,space,0.4344232000876218,Correct,False,False
410,5.0,410,535.5689151999541,No_go,,0.0,Correct,False,False
411,5.0,411,536.5685630000662,Go,space,0.4001550998073071,Correct,False,False
412,5.0,412,537.5675655000377,Go,space,0.3823889000341296,Correct,False,False
413,5.0,413,538.5657434999011,Go,space,0.4011039999313652,Correct,False,False
414,5.0,414,539.5649741999805,No_go,,0.0,Correct,False,False
415,5.0,415,540.56442589988,Go,space,0.403440099908039,Correct,False,False
416,5.0,416,541.5639132999349,Go,space,0.4326843998860568,Correct,False,False
417,5.0,417,542.5625334999058,Go,space,0.449712400091812,Correct,False,False
418,5.0,418,543.5614549000748,Go,space,0.3830484999343753,Correct,False,False
419,5.0,419,544.5609440999106,Go,space,0.452623900026083,Correct,False,False
420,5.0,420,545.5597749999724,Go,space,0.3839483999181539,Correct,False,False
421,5.0,421,546.5583981999662,No_go,,0.0,Correct,False,False
422,5.0,422,547.5573662999086,Go,space,0.3676416000816971,Correct,False,False
423,5.0,423,548.5571069999132,Go,space,0.4168274998664856,Correct,False,False
424,5.0,424,549.5561402998865,Go,space,0.433047000085935,Correct,False,False
425,5.0,425,550.5553037999198,Go,space,0.4164555999450385,Correct,False,False
426,5.0,426,551.5544787999243,Go,space,0.365928899962455,Correct,False,False
427,5.0,427,552.5530848999042,Go,space,0.3500528000295162,Correct,False,False
428,5.0,428,553.5518926999066,Go,space,0.3880362999625504,Correct,False,False
429,5.0,429,554.5514231999405,Go,space,0.3666306000668555,Correct,False,False
430,5.0,430,555.5505216999445,Go,space,0.3659542000386864,Correct,False,False
431,5.0,431,556.5501041000243,Go,space,0.3992027000058442,Correct,False,False
432,5.0,432,557.5494625999127,Go,space,0.3324710999149829,Correct,False,False
433,5.0,433,558.5485644000582,No_go,space,0.364904599962756,Incorrect,False,True
434,5.0,434,559.5477020998951,Go,space,0.4147138998378068,Correct,False,False
435,5.0,435,560.5448799999431,Go,space,0.4843370001763105,Correct,False,False
436,5.0,436,561.5444239999633,Go,space,0.4505088999867439,Correct,False,False
437,5.0,437,562.5441058999859,Go,space,0.4164695998188108,Correct,False,False
438,5.0,438,563.5431653000414,Go,space,0.5036640998441726,Correct,False,False
439,5.0,439,564.5425744999666,Go,space,0.4508531999308616,Correct,False,False
440,5.0,440,565.5460453999694,Go,space,0.4621490999124944,Correct,False,False
441,5.0,441,566.5399952000007,No_go,,0.0,Correct,False,False
442,5.0,442,567.5390012999997,Go,space,0.4831061000004411,Correct,False,False
443,5.0,443,568.538641900057,Go,space,0.4366293000057339,Correct,False,False
444,5.0,444,569.5367330999579,Go,space,0.5336116999387741,Correct,False,False
445,5.0,445,570.5367654999718,No_go,,0.0,Correct,False,False
446,5.0,446,571.5356348999776,Go,space,0.5158863998949528,Correct,False,False
447,5.0,447,572.5353431999683,Go,space,0.4489446000661701,Correct,False,False
448,5.0,448,573.5340881999582,Go,space,0.4828439999837428,Correct,False,False
449,5.0,449,574.5330201000907,No_go,,0.0,Correct,False,False
450,5.0,450,575.5349083999172,Go,space,0.4144450000021606,Correct,False,False
451,5.0,451,576.5308248999063,Go,space,0.4211103999987244,Correct,False,False
452,5.0,452,577.5309067999478,No_go,space,0.416290600085631,Incorrect,False,True
453,5.0,453,578.5295494999737,Go,space,0.4010892000515014,Correct,False,False
454,5.0,454,579.5283500000369,Go,space,0.4583134001586586,Correct,False,False
455,5.0,455,580.5273178000934,Go,space,0.5001731999218464,Correct,False,False
456,5.0,456,581.5266583999619,Go,space,0.5165051999501884,Correct,False,False
457,5.0,457,582.5255954999011,Go,space,0.5505260000936687,Correct,False,False
458,5.0,458,583.524912300054,No_go,,0.0,Correct,False,False
459,5.0,459,584.5263509999495,Go,space,0.481176899978891,Correct,False,False
460,5.0,460,585.5230175000615,Go,space,0.516808700049296,Correct,False,False
461,5.0,461,586.5220093999524,Go,space,0.4499959000386297,Correct,False,False
462,5.0,462,587.5213270999957,No_go,,0.0,Correct,False,False
463,5.0,463,588.520172999939,No_go,,0.0,Correct,False,False
464,5.0,464,589.5185648000333,Go,space,0.4708039001561701,Correct,False,False
465,5.0,465,590.5179475999903,Go,space,0.5011265999637544,Correct,False,False
466,5.0,466,591.5669120000675,Go,space,0.467297299997881,Correct,False,False
467,5.0,467,592.5667951998767,Go,space,0.4493856998160481,Correct,False,False
468,5.0,468,593.5653299000114,Go,space,0.449567100033164,Correct,False,False
469,5.0,469,594.5639688998926,Go,space,0.4526863999199122,Correct,False,False
470,5.0,470,595.5637272999156,Go,space,0.4833226997870952,Correct,False,False
471,5.0,471,596.5621167998761,Go,space,0.4682356999255717,Correct,False,False
472,5.0,472,597.5615379000083,No_go,,0.0,Correct,False,False
473,5.0,473,598.5611539999954,Go,space,0.4338710999581963,Correct,False,False
474,5.0,474,599.559528300073,No_go,,0.0,Correct,False,False
475,5.0,475,600.5590886999853,Go,space,0.433214700082317,Correct,False,False
476,5.0,476,601.5577477000188,Go,space,0.4501147998962551,Correct,False,False
477,5.0,477,602.5572194000706,Go,space,0.4173740998376161,Correct,False,False
478,5.0,478,603.555986299878,Go,space,0.417745100101456,Correct,False,False
479,5.0,479,604.5556256000418,No_go,,0.0,Correct,False,False
480,5.0,480,605.5546222000849,Go,space,0.4665651000104844,Correct,False,False
481,5.0,481,606.5533423000015,Go,space,0.467315400019288,Correct,False,False
482,5.0,482,607.5524047000799,Go,space,0.4172195000573993,Correct,False,False
483,5.0,483,608.5514122999739,Go,space,0.4187893001362681,Correct,False,False
484,5.0,484,609.5499406999443,No_go,,0.0,Correct,False,False
485,5.0,485,610.5495732999407,Go,space,0.4546445000451058,Correct,False,False
486,5.0,486,611.5481304998975,Go,space,0.4368876998778432,Correct,False,False
487,5.0,487,612.5472261998802,Go,space,0.4840259000193327,Correct,False,False
488,5.0,488,613.5470461000223,Go,space,0.4323015001136809,Correct,False,False
489,5.0,489,614.5453401000705,No_go,,0.0,Correct,False,False
490,5.0,490,615.5444755000062,Go,space,0.4343012999743223,Correct,False,False
491,5.0,491,616.5445797999855,Go,space,0.4165849999990314,Correct,False,False
492,5.0,492,617.5431723000947,Go,space,0.4170663999393582,Correct,False,False
493,5.0,493,618.5421118000522,No_go,,0.0,Correct,False,False
494,5.0,494,619.5411207999568,Go,space,0.400690599810332,Correct,False,False
495,6.0,495,669.3437894999515,No_go,,0.0,Correct,False,False
496,6.0,496,670.3434868999757,Go,space,0.3664615999441594,Correct,False,False
497,6.0,497,671.3424297999591,Go,space,0.4163738000206649,Correct,False,False
498,6.0,498,672.3413458000869,Go,space,0.4165443000383675,Correct,False,False
499,6.0,499,673.3402303999756,Go,space,0.4009539999533444,Correct,False,False
500,6.0,500,674.3387488001026,No_go,,0.0,Correct,False,False
501,6.0,501,675.338093600003,Go,space,0.4840130000375211,Correct,False,False
502,6.0,502,676.3371943000238,Go,space,0.416953899897635,Correct,False,False
503,6.0,503,677.3365774999838,No_go,,0.0,Correct,False,False
504,6.0,504,678.3347153998911,Go,space,0.4532519001513719,Correct,False,False
505,6.0,505,679.3355821999721,Go,space,0.4168132999911904,Correct,False,False
506,6.0,506,680.3335921999533,Go,space,0.4003924999851733,Correct,False,False
507,6.0,507,681.3325348999351,No_go,space,0.4358520000241697,Incorrect,False,True
508,6.0,508,682.331819199957,Go,space,0.4839767999947071,Correct,False,False
509,6.0,509,683.330835999921,Go,space,0.5001097000204027,Correct,False,False
510,6.0,510,684.3295410999563,Go,space,0.4508648000191897,Correct,False,False
511,6.0,511,685.3288745998871,Go,space,0.4168109002057463,Correct,False,False
512,6.0,512,686.3283309999388,Go,space,0.4339660000987351,Correct,False,False
513,6.0,513,687.3273815999273,No_go,space,0.3838880001567304,Incorrect,False,True
514,6.0,514,688.3267065000255,Go,space,0.3990348998922854,Correct,False,False
515,6.0,515,689.3248469000682,Go,space,0.4175891000777483,Correct,False,False
516,6.0,516,690.3239146999549,Go,space,0.4673927000258118,Correct,False,False
517,6.0,517,691.3246027000714,Go,space,0.38290959992446,Correct,False,False
518,6.0,518,692.3231448000297,Go,space,0.4666277999058366,Correct,False,False
519,6.0,519,693.3218034999445,Go,space,0.4175405001733452,Correct,False,False
520,6.0,520,694.3221243000589,Go,space,0.4329367000609636,Correct,False,False
521,6.0,521,695.3197184999008,No_go,,0.0,Correct,False,False
522,6.0,522,696.318904899992,Go,space,0.4673310997895896,Correct,False,False
523,6.0,523,697.3190794000402,Go,space,0.4828883002046495,Correct,False,False
524,6.0,524,698.31809039996,Go,space,0.4326928001828491,Correct,False,False
525,6.0,525,699.3165925999638,No_go,,0.0,Correct,False,False
526,6.0,526,700.3154396999162,Go,space,0.4506780998781323,Correct,False,False
527,6.0,527,701.3139053999912,Go,space,0.4172865999862551,Correct,False,False
528,6.0,528,702.313839700073,No_go,,0.0,Correct,False,False
529,6.0,529,703.3125479000155,Go,space,0.4371231999248266,Correct,False,False
530,6.0,530,704.3115437999368,Go,space,0.4677868001163006,Correct,False,False
531,6.0,531,705.310262999963,Go,space,0.4846608999650925,Correct,False,False
532,6.0,532,706.3097198000178,Go,space,0.4334197000134736,Correct,False,False
533,6.0,533,707.3091738999356,Go,space,0.4667532001622021,Correct,False,False
534,6.0,534,708.3074838998728,Go,space,0.4668642000760883,Correct,False,False
535,6.0,535,709.3070924999192,Go,space,0.4335778001695871,Correct,False,False
536,6.0,536,710.3058972000144,Go,space,0.4198396001011133,Correct,False,False
537,6.0,537,711.3083285999019,Go,space,0.4139038999564945,Correct,False,False
538,6.0,538,712.3042816999368,Go,space,0.4211117001250386,Correct,False,False
539,6.0,539,713.3039392998908,No_go,,0.0,Correct,False,False
540,6.0,540,714.3025700999424,Go,space,0.4177463001105934,Correct,False,False
541,6.0,541,715.3015495999716,No_go,,0.0,Correct,False,False
542,6.0,542,716.300568100065,Go,space,0.3832429000176489,Correct,False,False
543,6.0,543,717.3001767999958,Go,space,0.3995922999456525,Correct,False,False
544,6.0,544,718.2981591999996,Go,space,0.4383240998722613,Correct,False,False
545,6.0,545,719.2977261000779,Go,space,0.4332639998756349,Correct,False,False
546,6.0,546,720.2970763999037,Go,space,0.4530332998838275,Correct,False,False
547,6.0,547,721.2959350000601,Go,space,0.4004035000689327,Correct,False,False
548,6.0,548,722.2948938000482,Go,space,0.4877906001638621,Correct,False,False
549,6.0,549,723.2946305000223,Go,space,0.5167442997917533,Correct,False,False
550,6.0,550,724.2932279999368,Go,space,0.4826337001286447,Correct,False,False
551,6.0,551,725.2952717000153,No_go,,0.0,Correct,False,False
552,6.0,552,726.2908455000725,Go,space,0.4173720001708716,Correct,False,False
553,6.0,553,727.2907575001009,Go,space,0.4994017998687923,Correct,False,False
554,6.0,554,728.2897365998942,Go,space,0.4998980998061597,Correct,False,False
555,6.0,555,729.2888378999196,Go,space,0.6317576998844743,Correct,False,False
556,6.0,556,730.2871447999496,Go,space,0.4334607999771833,Correct,False,False
557,6.0,557,731.2862919999752,Go,space,0.4003574999514967,Correct,False,False
558,6.0,558,732.2850043000653,Go,space,0.3671141001395881,Correct,False,False
559,6.0,559,733.284148799954,No_go,,0.0,Correct,False,False
560,6.0,560,734.2836696000304,No_go,,0.0,Correct,False,False
561,6.0,561,735.2831735000946,Go,space,0.4177127999719232,Correct,False,False
562,6.0,562,736.2813085000962,Go,space,0.3883340000174939,Correct,False,False
563,6.0,563,737.2814148999751,Go,space,0.4505869999993592,Correct,False,False
564,6.0,564,738.2803199000191,Go,space,0.4840043999720365,Correct,False,False
565,6.0,565,739.2782930999529,Go,space,0.454933299915865,Correct,False,False
566,6.0,566,740.2779377000406,Go,space,0.4330972000025213,Correct,False,False
567,6.0,567,741.2767415998969,No_go,,0.0,Correct,False,False
568,6.0,568,742.2756107999012,No_go,,0.0,Correct,False,False
569,6.0,569,743.2754079999868,Go,space,0.4501527000684291,Correct,False,False
570,6.0,570,744.2751541000325,Go,space,0.450983100105077,Correct,False,False
571,6.0,571,745.2736488000955,No_go,,0.0,Correct,False,False
572,6.0,572,746.2726219999604,Go,space,0.469861299963668,Correct,False,False
573,6.0,573,747.2716393000446,Go,space,0.4526533999014646,Correct,False,False
574,6.0,574,748.2705043000169,Go,space,0.4385546999983489,Correct,False,False
575,6.0,575,749.2699718999211,Go,space,0.4666950001846999,Correct,False,False
576,6.0,576,750.2693302000407,Go,space,0.4504672999028116,Correct,False,False
577,6.0,577,751.2682024000678,Go,space,0.4330977001227438,Correct,False,False
578,6.0,578,752.2678105998784,Go,space,0.3994455998763442,Correct,False,False
579,6.0,579,753.2663354999386,Go,space,0.3662562000099569,Correct,False,False
580,6.0,580,754.2647414000239,Go,space,0.4557097000069916,Correct,False,False
581,6.0,581,755.2662066000048,Go,space,0.4647293998859823,Correct,False,False
582,6.0,582,756.2631916999817,Go,space,0.4385385999921709,Correct,False,False
583,6.0,583,757.261877000099,No_go,,0.0,Correct,False,False
584,6.0,584,758.261223499896,No_go,,0.0,Correct,False,False
