,block_index,trial,trial_onset(s),stimulus_type,resp_key,rt(s),correct,is_omission,is_comission
0,,0,24.02435739990324,No_go,,0.0,Correct,False,False
1,,1,26.044241899857298,Go,space,0.4187468001618981,Correct,False,False
2,,2,27.06202069995925,Go,space,0.6164692000020295,Correct,False,False
3,,3,28.07827359996736,No_go,space,0.5492525000590831,Incorrect,False,True
4,,4,29.093784799799323,Go,,0.0,Incorrect,True,False
5,,5,31.115789199946448,No_go,space,0.392803099937737,Incorrect,False,True
6,,6,32.12446889979765,Go,space,0.4829400000162422,Correct,False,False
7,,7,33.13996189995669,Go,,0.0,Incorrect,True,False
8,,8,35.16092769987881,Go,space,0.4438966000452637,Correct,False,False
9,,9,36.17065539979376,Go,space,0.5832197000272572,Correct,False,False
10,,10,37.1868404999841,Go,space,0.5162325999699533,Correct,False,False
11,,11,38.2014975999482,No_go,space,0.3667953999247402,Incorrect,False,True
12,,12,39.217693199869245,No_go,,0.0,Correct,False,False
13,,13,41.23975789989345,Go,,0.0,Incorrect,True,False
14,,14,43.25443499977701,Go,space,0.4287851001136005,Correct,False,False
15,,15,44.26346869999543,Go,space,0.5327438001986593,Correct,False,False
16,,16,45.27858389983885,Go,space,0.5167121000122279,Correct,False,False
17,,17,46.29473109985702,Go,space,0.4334136999677866,Correct,False,False
18,,18,47.30995289981365,Go,space,0.3839777999091893,Correct,False,False
19,,19,48.325339499861,Go,space,0.4179078999441117,Correct,False,False
20,,20,49.34147099987604,Go,space,0.4333478999324143,Correct,False,False
21,,21,50.356818799860775,Go,space,0.4659249000251293,Correct,False,False
22,,22,51.37185869994573,Go,space,0.4506561001762748,Correct,False,False
23,,23,52.40491319983266,Go,space,0.4504331999924034,Correct,False,False
24,,24,53.42057169997133,No_go,space,0.402251600055024,Incorrect,False,True
25,,25,54.43689479981549,Go,space,0.5350301000289619,Correct,False,False
26,,26,55.45300559978932,No_go,space,0.3691920000128448,Incorrect,False,True
27,,27,56.46866869996302,Go,space,0.4162798000033945,Correct,False,False
28,,28,57.48349299980328,Go,space,0.4020384000614285,Correct,False,False
29,,29,58.49976849998348,Go,,0.0,Incorrect,True,False
30,,30,60.52439959999174,Go,space,0.3900449001230299,Correct,False,False
31,,31,61.52963789994829,Go,space,0.3669751998968422,Correct,False,False
32,,32,62.546566099859774,Go,space,0.3499433998949826,Correct,False,False
33,,33,63.56202269997448,Go,space,0.3530226000584662,Correct,False,False
34,,34,64.57787809986621,Go,space,0.4157887999899685,Correct,False,False
35,,35,65.59360539983027,Go,space,0.4163631000556052,Correct,False,False
36,,36,66.60903419996612,Go,space,0.3698980000335723,Correct,False,False
37,,37,67.62524929991923,Go,space,0.43386340001598,Correct,False,False
38,,38,68.64001589990221,No_go,space,0.5176180000416934,Incorrect,False,True
39,,39,69.65629439987242,Go,space,0.4342545999679714,Correct,False,False
40,,40,70.67177729983814,Go,space,0.5003718000371009,Correct,False,False
41,,41,71.6866321999114,Go,space,0.3499053998384624,Correct,False,False
42,,42,72.70317489979789,Go,space,0.449751199921593,Correct,False,False
43,,43,73.71860059979372,Go,space,0.5174404000863433,Correct,False,False
44,,44,74.73471959982999,No_go,space,0.4338440999854356,Incorrect,False,True
45,1.0,45,101.06494439998642,Go,,0.0,Incorrect,True,False
46,1.0,46,102.05979479989035,Go,space,0.7160089001990855,Correct,False,False
47,1.0,47,103.05813559982926,Go,space,0.3669280000030994,Correct,False,False
48,1.0,48,104.05704109999353,Go,space,0.5002842000685632,Correct,False,False
49,1.0,49,105.05547179980204,No_go,space,0.416886999970302,Incorrect,False,True
50,1.0,50,106.05603689979762,No_go,,0.0,Correct,False,False
51,1.0,51,107.05479639978148,Go,space,0.5551050999201834,Correct,False,False
52,1.0,52,108.05377529980616,Go,space,0.5168610999826342,Correct,False,False
53,1.0,53,109.05287239979953,Go,space,0.5991758001036942,Correct,False,False
54,1.0,54,110.051471499959,Go,space,0.4667541000526398,Correct,False,False
55,1.0,55,111.05014199996369,Go,space,0.4382885999511927,Correct,False,False
56,1.0,56,112.04970869980752,Go,space,0.4499063000548631,Correct,False,False
57,1.0,57,113.04894129978491,Go,space,0.6051700999960303,Correct,False,False
58,1.0,58,114.04798249993472,No_go,,0.0,Correct,False,False
59,1.0,59,115.04747349978425,Go,space,0.5329261000733823,Correct,False,False
60,1.0,60,116.04610669985414,Go,space,0.5333738999906927,Correct,False,False
61,1.0,61,117.04545059986413,Go,space,0.4331942000426352,Correct,False,False
62,1.0,62,118.04442289983854,No_go,,0.0,Correct,False,False
63,1.0,63,119.04298599995673,Go,space,0.4838934000581503,Correct,False,False
64,1.0,64,120.04212969983928,Go,space,0.5334881998132914,Correct,False,False
65,1.0,65,121.04147439985536,Go,space,0.5185276998672634,Correct,False,False
66,1.0,66,122.04066899977624,No_go,space,0.450233899988234,Incorrect,False,True
67,1.0,67,123.03928279993124,Go,space,0.4839298999868333,Correct,False,False
68,1.0,68,124.03879979997872,Go,space,0.4005793000105768,Correct,False,False
69,1.0,69,125.03798799985088,Go,space,0.5012637998443097,Correct,False,False
70,1.0,70,126.03671339992434,Go,space,0.4372134001459926,Correct,False,False
71,1.0,71,127.03622269979678,Go,space,0.5499822001438588,Correct,False,False
72,1.0,72,128.03520789998583,Go,space,0.4502206000033766,Correct,False,False
73,1.0,73,129.0336897999514,No_go,,0.0,Correct,False,False
74,1.0,74,130.0327870999463,Go,space,0.4667710999492556,Correct,False,False
75,1.0,75,131.0318096999545,Go,space,0.4507210000883788,Correct,False,False
76,1.0,76,132.031359099783,Go,space,0.4830243000760674,Correct,False,False
77,1.0,77,133.030211399775,Go,space,0.5337644000537694,Correct,False,False
78,1.0,78,134.02923739980906,Go,space,0.4198664000723511,Correct,False,False
79,1.0,79,135.0286153999623,Go,space,0.5330681998748332,Correct,False,False
80,1.0,80,136.02715899981558,Go,space,0.5166849999222904,Correct,False,False
81,1.0,81,137.02697599981911,Go,space,0.4670255000237375,Correct,False,False
82,1.0,82,138.0251369997859,No_go,,0.0,Correct,False,False
83,1.0,83,139.02481139986776,No_go,space,0.5000591001007706,Incorrect,False,True
84,1.0,84,140.02628189977258,Go,space,0.514629099983722,Correct,False,False
85,1.0,85,141.0226630999241,Go,space,0.4171875000465661,Correct,False,False
86,1.0,86,142.02183589991182,Go,space,0.4339004000648856,Correct,False,False
87,1.0,87,143.0206511998549,Go,space,0.4506499001290649,Correct,False,False
88,1.0,88,144.02013459987938,Go,space,0.4168372000567615,Correct,False,False
89,1.0,89,145.01913139992394,Go,space,0.4339815001003444,Correct,False,False
90,1.0,90,146.01779479999095,Go,space,0.3903192998841405,Correct,False,False
91,1.0,91,147.01670089992697,Go,space,0.5175536000169814,Correct,False,False
92,1.0,92,148.01565949991345,Go,space,0.4506565001793206,Correct,False,False
93,1.0,93,149.01486899983138,Go,space,0.4509403000120073,Correct,False,False
94,1.0,94,150.014385699993,No_go,,0.0,Correct,False,False
95,1.0,95,151.01385609991848,Go,space,0.4834333001635968,Correct,False,False
96,1.0,96,152.01207359996624,Go,space,0.5172259998507798,Correct,False,False
97,1.0,97,153.01040769997053,Go,space,0.472135900054127,Correct,False,False
98,1.0,98,154.01156019978225,Go,space,0.4529116000048816,Correct,False,False
99,1.0,99,155.01006689993665,No_go,,0.0,Correct,False,False
100,1.0,100,156.0090408998076,Go,space,0.500149300089106,Correct,False,False
101,1.0,101,157.00751169980504,Go,space,0.4740259000100195,Correct,False,False
102,1.0,102,158.00672439998016,No_go,space,0.4342271999921649,Incorrect,False,True
103,1.0,103,159.00607049977407,Go,space,0.4004875998944044,Correct,False,False
104,1.0,104,160.00508819986135,Go,space,0.4870405001565814,Correct,False,False
105,1.0,105,161.00411039986648,Go,space,0.4834475999232381,Correct,False,False
106,1.0,106,162.0033038998954,No_go,,0.0,Correct,False,False
107,1.0,107,163.00160189997405,Go,space,0.4383081998676061,Correct,False,False
108,1.0,108,164.0009124998469,Go,space,0.4669772000052035,Correct,False,False
109,1.0,109,165.00014599994756,No_go,,0.0,Correct,False,False
110,1.0,110,165.9995199998375,Go,space,0.4002239000983536,Correct,False,False
111,1.0,111,166.99825379997492,Go,space,0.4507013999391347,Correct,False,False
112,1.0,112,167.9974160999991,No_go,,0.0,Correct,False,False
113,1.0,113,168.9965953999199,Go,space,0.4532677999231964,Correct,False,False
114,1.0,114,169.99754819995724,Go,space,0.4814428999088704,Correct,False,False
115,1.0,115,170.99443619977683,Go,space,0.5336039001122117,Correct,False,False
116,1.0,116,171.9942031998653,No_go,,0.0,Correct,False,False
117,1.0,117,172.99261839990504,No_go,,0.0,Correct,False,False
118,1.0,118,173.9915364999324,Go,space,0.4503838000819087,Correct,False,False
119,1.0,119,174.99139839992858,Go,space,0.383297799853608,Correct,False,False
120,1.0,120,175.9906342998147,Go,space,0.5012135000433773,Correct,False,False
121,1.0,121,176.98909479985014,Go,space,0.4005815000273287,Correct,False,False
122,1.0,122,177.98795749992132,Go,space,0.483827699907124,Correct,False,False
123,1.0,123,178.98700949992053,No_go,space,0.4197719001676887,Incorrect,False,True
124,1.0,124,179.98585789999925,Go,space,0.5210037000942975,Correct,False,False
125,1.0,125,180.98538019997068,Go,space,0.4836233998648822,Correct,False,False
126,1.0,126,181.98471319978125,Go,space,0.5013420002069324,Correct,False,False
127,1.0,127,182.98415649984963,Go,space,0.4691221001558006,Correct,False,False
128,1.0,128,183.983055499848,Go,space,0.3834840001072734,Correct,False,False
129,1.0,129,184.9839335998986,Go,space,0.4150243999902159,Correct,False,False
130,1.0,130,185.98047089995816,Go,space,0.3891342000570148,Correct,False,False
131,1.0,131,186.97946809977293,No_go,,0.0,Correct,False,False
132,1.0,132,187.9785165998619,Go,space,0.4348506000824272,Correct,False,False
133,1.0,133,188.9783059998881,Go,space,0.4333365000784397,Correct,False,False
134,1.0,134,189.97747879987585,Go,space,0.4999529998749494,Correct,False,False
135,2.0,135,208.42255789996125,No_go,,0.0,Correct,False,False
136,2.0,136,209.4087437998969,Go,space,0.4172598998993635,Correct,False,False
137,2.0,137,210.4071607999504,Go,space,0.4009092999622226,Correct,False,False
138,2.0,138,211.4069642999675,Go,space,0.3852137001231313,Correct,False,False
139,2.0,139,212.40592969977297,No_go,,0.0,Correct,False,False
140,2.0,140,213.40501979994588,Go,space,0.4169083000160754,Correct,False,False
141,2.0,141,214.40343359997496,Go,space,0.4007782998960465,Correct,False,False
142,2.0,142,215.40240569994785,Go,space,0.4015011999290436,Correct,False,False
143,2.0,143,216.40169149986468,Go,space,0.417396199889481,Correct,False,False
144,2.0,144,217.40054619987492,No_go,,0.0,Correct,False,False
145,2.0,145,218.4003992998041,Go,space,0.3838373001199215,Correct,False,False
146,2.0,146,219.39890719996765,Go,space,0.4845286000054329,Correct,False,False
147,2.0,147,220.3985178999137,Go,space,0.3838142000604421,Correct,False,False
148,2.0,148,221.3971155998297,Go,space,0.4508946998976171,Correct,False,False
149,2.0,149,222.3962672997732,No_go,,0.0,Correct,False,False
150,2.0,150,223.39554469985887,Go,space,0.4840559000149369,Correct,False,False
151,2.0,151,224.39531969977543,Go,space,0.4182712999172508,Correct,False,False
152,2.0,152,225.39388239989057,Go,space,0.3674560999497771,Correct,False,False
153,2.0,153,226.3925713999197,Go,space,0.4014572000596672,Correct,False,False
154,2.0,154,227.3917747999076,No_go,space,0.3846735002007335,Incorrect,False,True
155,2.0,155,228.3903244999237,Go,space,0.4342771999072283,Correct,False,False
156,2.0,156,229.39047139999457,No_go,,0.0,Correct,False,False
157,2.0,157,230.3898223999422,Go,space,0.3995149000547826,Correct,False,False
158,2.0,158,231.38815579982477,Go,space,0.3842877000570297,Correct,False,False
159,2.0,159,232.38724039983936,Go,space,0.5523463999852538,Correct,False,False
160,2.0,160,233.38727119984105,Go,space,0.449763499898836,Correct,False,False
161,2.0,161,234.3855569998268,Go,space,0.4034300001803785,Correct,False,False
162,2.0,162,235.38502839999276,No_go,space,0.4172427000012249,Incorrect,False,True
163,2.0,163,236.38470299984328,Go,space,0.4654143999796361,Correct,False,False
164,2.0,164,237.38288759998977,Go,space,0.3832359998486936,Correct,False,False
165,2.0,165,238.382438799832,Go,space,0.3659977000206709,Correct,False,False
166,2.0,166,239.38171009998769,Go,space,0.4490141998976469,Correct,False,False
167,2.0,167,240.38023409992456,Go,space,0.5003182000946254,Correct,False,False
168,2.0,168,241.3790618998464,Go,space,0.4999416000209749,Correct,False,False
169,2.0,169,242.37806109990925,No_go,,0.0,Correct,False,False
170,2.0,170,243.37664529983888,Go,space,0.4513979000039398,Correct,False,False
171,2.0,171,244.3761901999824,Go,space,0.5172593998722732,Correct,False,False
172,2.0,172,245.375957199838,Go,space,0.4659383001271635,Correct,False,False
173,2.0,173,246.3747476998251,Go,space,0.3827865000348538,Correct,False,False
174,2.0,174,247.37482109991836,Go,space,0.4498643002007156,Correct,False,False
175,2.0,175,248.37270189984704,No_go,,0.0,Correct,False,False
176,2.0,176,249.37193839997053,Go,space,0.4034500999841839,Correct,False,False
177,2.0,177,250.3706455999054,Go,space,0.3500781999900937,Correct,False,False
178,2.0,178,251.36999989999455,No_go,,0.0,Correct,False,False
179,2.0,179,252.3692200998776,Go,space,0.4164322998840362,Correct,False,False
180,2.0,180,253.36716819996943,Go,space,0.4549612000118941,Correct,False,False
181,2.0,181,254.3666606999468,Go,space,0.3835062999278307,Correct,False,False
182,2.0,182,255.3657344998792,Go,space,0.4335104001220315,Correct,False,False
183,2.0,183,256.36506759980693,Go,space,0.4204124000389129,Correct,False,False
184,2.0,184,257.3642641999759,Go,space,0.4841988999396562,Correct,False,False
185,2.0,185,258.3630933999084,Go,space,0.417077099904418,Correct,False,False
186,2.0,186,259.3625518998597,Go,space,0.4338781000114977,Correct,False,False
187,2.0,187,260.36144519993104,Go,space,0.4827529001049697,Correct,False,False
188,2.0,188,261.3603725999128,Go,space,0.4667185998987406,Correct,False,False
189,2.0,189,262.3621597997844,Go,space,0.46417609998025,Correct,False,False
190,2.0,190,263.3582056998275,Go,space,0.4340635000262409,Correct,False,False
191,2.0,191,264.3572336998768,Go,space,0.5677928999066353,Correct,False,False
192,2.0,192,265.357027299935,No_go,,0.0,Correct,False,False
193,2.0,193,266.35566029977053,Go,space,0.4873123001307249,Correct,False,False
194,2.0,194,267.3542113997973,Go,space,0.4697888998780399,Correct,False,False
195,2.0,195,268.3540456998162,Go,space,0.3669711998663842,Correct,False,False
196,2.0,196,269.3536782998126,Go,space,0.4658651000354439,Correct,False,False
197,2.0,197,270.35170379979536,Go,space,0.4508273000828922,Correct,False,False
198,2.0,198,271.351274699904,Go,space,0.4003265998326242,Correct,False,False
199,2.0,199,272.3506731998641,No_go,,0.0,Correct,False,False
200,2.0,200,273.3493207998108,Go,space,0.3998112000990659,Correct,False,False
201,2.0,201,274.3483588998206,No_go,,0.0,Correct,False,False
202,2.0,202,275.34739449992776,Go,space,0.4671432001050561,Correct,False,False
203,2.0,203,276.34575269999914,Go,space,0.4680586000904441,Correct,False,False
204,2.0,204,277.34551639994606,Go,space,0.4669163001235574,Correct,False,False
205,2.0,205,278.34407989983447,Go,space,0.4836575000081211,Correct,False,False
206,2.0,206,279.34343489981256,Go,space,0.4678267000708729,Correct,False,False
207,2.0,207,280.3424087997992,Go,space,0.4515503000002354,Correct,False,False
208,2.0,208,281.3423137997743,Go,space,0.4994035998824984,Correct,False,False
209,2.0,209,282.3411559998058,Go,space,0.416816100012511,Correct,False,False
210,2.0,210,283.33989009982906,Go,space,0.5003885999321938,Correct,False,False
211,2.0,211,284.33856909978203,No_go,,0.0,Correct,False,False
212,2.0,212,285.338296999922,Go,space,0.4530841000378132,Correct,False,False
213,2.0,213,286.3367741999682,Go,space,0.4853113000281155,Correct,False,False
214,2.0,214,287.33633419987746,No_go,,0.0,Correct,False,False
215,2.0,215,288.3348192998674,Go,space,0.4838556000031531,Correct,False,False
216,2.0,216,289.33454359997995,Go,space,0.4914178000763058,Correct,False,False
217,2.0,217,290.3329633998219,No_go,space,0.5341658000834286,Incorrect,False,True
218,2.0,218,291.3324480999727,Go,space,0.4335719000082463,Correct,False,False
219,2.0,219,292.3316249998752,Go,space,0.467689499957487,Correct,False,False
220,2.0,220,293.3301158999093,Go,space,0.4673663000576198,Correct,False,False
221,2.0,221,294.32915089977905,No_go,,0.0,Correct,False,False
222,2.0,222,295.3280547999311,No_go,,0.0,Correct,False,False
223,2.0,223,296.32769459998235,Go,space,0.4510395000688731,Correct,False,False
224,2.0,224,297.3271156998817,Go,space,0.4340371000580489,Correct,False,False
225,3.0,225,315.16446949983947,Go,space,0.7153794001787901,Correct,False,False
226,3.0,226,316.1588539998047,No_go,,0.0,Correct,False,False
227,3.0,227,317.1582700998988,No_go,,0.0,Correct,False,False
228,3.0,228,318.1570457997732,Go,space,0.4509351002052426,Correct,False,False
229,3.0,229,319.15606849989854,Go,space,0.5337136001326144,Correct,False,False
230,3.0,230,320.15494079981,Go,space,0.449112799949944,Correct,False,False
231,3.0,231,321.1537704998628,No_go,space,0.4675436001271009,Incorrect,False,True
232,3.0,232,322.15318699995987,Go,space,0.46729930001311,Correct,False,False
233,3.0,233,323.15254249982536,Go,space,0.5334495999850333,Correct,False,False
234,3.0,234,324.15156449982896,Go,space,0.4700372000224888,Correct,False,False
235,3.0,235,325.15089309983887,Go,space,0.4540597000159323,Correct,False,False
236,3.0,236,326.1499439999461,Go,space,0.5339049999602139,Correct,False,False
237,3.0,237,327.14904139982536,Go,space,0.4331847999710589,Correct,False,False
238,3.0,238,328.1479075998068,Go,space,0.3666360001079738,Correct,False,False
239,3.0,239,329.1476570998784,Go,space,0.5831766999326646,Correct,False,False
240,3.0,240,330.1461862998549,Go,space,0.466115599963814,Correct,False,False
241,3.0,241,331.14478129986674,Go,space,0.4668438998050987,Correct,False,False
242,3.0,242,332.144816899905,Go,space,0.4000043000560254,Correct,False,False
243,3.0,243,333.1433704998344,Go,space,0.3376005000900477,Correct,False,False
244,3.0,244,334.1430429997854,Go,space,0.4159727999940514,Correct,False,False
245,3.0,245,335.1417775999289,Go,space,0.4502655998803675,Correct,False,False
246,3.0,246,336.140342899831,Go,space,0.5020282999612391,Correct,False,False
247,3.0,247,337.14019939978607,No_go,space,0.4502290000673383,Incorrect,False,True
248,3.0,248,338.13882639980875,Go,space,0.4507220000959933,Correct,False,False
249,3.0,249,339.13800209993497,Go,space,0.4692192999646067,Correct,False,False
250,3.0,250,340.1369805999566,Go,space,0.5002616001293063,Correct,False,False
251,3.0,251,341.135873099789,Go,space,0.5015267000999302,Correct,False,False
252,3.0,252,342.1350651998073,Go,space,0.4828093000687659,Correct,False,False
253,3.0,253,343.1337324997876,Go,space,0.4835749000776559,Correct,False,False
254,3.0,254,344.1327091997955,Go,space,0.5346432998776436,Correct,False,False
255,3.0,255,345.1319686998613,Go,space,0.6162235999945551,Correct,False,False
256,3.0,256,346.1309020998888,No_go,,0.0,Correct,False,False
257,3.0,257,347.1305089998059,Go,space,0.4830553000792861,Correct,False,False
258,3.0,258,348.12963189999573,Go,space,0.5176460999064147,Correct,False,False
259,3.0,259,349.1287203999236,No_go,,0.0,Correct,False,False
260,3.0,260,350.1271377999801,Go,space,0.5168693999294192,Correct,False,False
261,3.0,261,351.1269921998028,Go,space,0.5326769000384957,Correct,False,False
262,3.0,262,352.12566499994136,No_go,,0.0,Correct,False,False
263,3.0,263,353.1245484999381,Go,space,0.5010371999815106,Correct,False,False
264,3.0,264,354.1228834998328,Go,space,0.4836259000003338,Correct,False,False
265,3.0,265,355.1223145998083,Go,space,0.5353652001358569,Correct,False,False
266,3.0,266,356.1218180998694,Go,space,0.5335020001512021,Correct,False,False
267,3.0,267,357.12051769997925,Go,space,0.5364521997980773,Correct,False,False
268,3.0,268,358.12031169980764,No_go,,0.0,Correct,False,False
269,3.0,269,359.1191040999256,Go,space,0.5048078000545502,Correct,False,False
270,3.0,270,360.118684399873,Go,space,0.4869789001531899,Correct,False,False
271,3.0,271,361.11721679987386,Go,space,0.4832982998341322,Correct,False,False
272,3.0,272,362.1158314999193,Go,space,0.5167658000718802,Correct,False,False
273,3.0,273,363.11481939977966,Go,space,0.5332355001010001,Correct,False,False
274,3.0,274,364.1142223998904,No_go,,0.0,Correct,False,False
275,3.0,275,365.113597799791,Go,space,0.4996748000849038,Correct,False,False
276,3.0,276,366.1120072999038,No_go,,0.0,Correct,False,False
277,3.0,277,367.1115940997842,Go,space,0.483401000034064,Correct,False,False
278,3.0,278,368.1110698999837,No_go,,0.0,Correct,False,False
279,3.0,279,369.1098610998597,No_go,space,0.5327600999735296,Incorrect,False,True
280,3.0,280,370.1098154999781,Go,space,0.6311361000407487,Correct,False,False
281,3.0,281,371.10710579995066,Go,space,0.4501952000427991,Correct,False,False
282,3.0,282,372.1062942999415,Go,space,0.4995690998621285,Correct,False,False
283,3.0,283,373.1052788998932,Go,space,0.4839548000600189,Correct,False,False
284,3.0,284,374.104582299944,Go,space,0.5331388998311013,Correct,False,False
285,3.0,285,375.1033903998323,Go,space,0.5504699000157416,Correct,False,False
286,3.0,286,376.102088799933,Go,space,0.5676969999913126,Correct,False,False
287,3.0,287,377.1020882998128,Go,space,0.5163934000302106,Correct,False,False
288,3.0,288,378.10328699997626,Go,space,0.550357999978587,Correct,False,False
289,3.0,289,379.0999533999711,No_go,,0.0,Correct,False,False
290,3.0,290,380.0991800997872,Go,space,0.4340111999772489,Correct,False,False
291,3.0,291,381.098573199939,Go,space,0.4835558000486344,Correct,False,False
292,3.0,292,382.0970348999836,No_go,,0.0,Correct,False,False
293,3.0,293,383.0965671997983,No_go,,0.0,Correct,False,False
294,3.0,294,384.0955676999874,Go,space,0.5506718000397086,Correct,False,False
295,3.0,295,385.0949814999476,Go,space,0.5001954999752343,Correct,False,False
296,3.0,296,386.0976936998777,Go,space,0.497688699979335,Correct,False,False
297,3.0,297,387.0925049998332,Go,space,0.5348141000140458,Correct,False,False
298,3.0,298,388.0920187998563,Go,space,0.50048129982315,Correct,False,False
299,3.0,299,389.0914679998532,Go,space,0.5160101999063045,Correct,False,False
300,3.0,300,390.0903887997847,Go,space,0.5159571000840515,Correct,False,False
301,3.0,301,391.08949249982834,Go,space,0.5664385999552906,Correct,False,False
302,3.0,302,392.088305399986,Go,space,0.5336851000320166,Correct,False,False
303,3.0,303,393.0887654998805,Go,space,0.5818006999325007,Correct,False,False
304,3.0,304,394.0862972999457,Go,space,0.5380080998875201,Correct,False,False
305,3.0,305,395.08577039977536,Go,space,0.5215731000062078,Correct,False,False
306,3.0,306,396.0840932999272,Go,space,0.4838870000094175,Correct,False,False
307,3.0,307,397.0836382999551,No_go,,0.0,Correct,False,False
308,3.0,308,398.0876223999076,No_go,,0.0,Correct,False,False
309,3.0,309,399.0866320999339,Go,space,0.5123810998629779,Correct,False,False
310,3.0,310,400.0813072999008,No_go,,0.0,Correct,False,False
311,3.0,311,401.0800757999532,Go,space,0.4834863999858498,Correct,False,False
312,3.0,312,402.0790762999095,Go,space,0.4998244000598788,Correct,False,False
313,3.0,313,403.07756159990095,Go,space,0.5000612998846918,Correct,False,False
314,3.0,314,404.076337199891,Go,space,0.4676423999480903,Correct,False,False
315,4.0,315,412.5885864999145,No_go,,0.0,Correct,False,False
316,4.0,316,413.5844525999855,Go,space,0.4837315999902785,Correct,False,False
317,4.0,317,414.5827371999621,Go,space,0.4846682001370936,Correct,False,False
318,4.0,318,415.5826090998016,Go,space,0.4672038999851793,Correct,False,False
319,4.0,319,416.5815028999932,No_go,space,0.48269970016554,Incorrect,False,True
320,4.0,320,417.5800503999926,Go,space,0.3689522000495344,Correct,False,False
321,4.0,321,418.5804674997926,Go,space,0.4508824001532048,Correct,False,False
322,4.0,322,419.5790457997937,Go,space,0.4665024999994784,Correct,False,False
323,4.0,323,420.5778630999848,Go,space,0.4369196000043303,Correct,False,False
324,4.0,324,421.57681819982827,Go,space,0.4673615999054163,Correct,False,False
325,4.0,325,422.5767239998095,Go,space,0.4329749001190066,Correct,False,False
326,4.0,326,423.5752015998587,No_go,,0.0,Correct,False,False
327,4.0,327,424.5748255997896,Go,space,0.4661948001012206,Correct,False,False
328,4.0,328,425.5733227999881,Go,space,0.4844643000978976,Correct,False,False
329,4.0,329,426.572994499933,Go,space,0.516295799985528,Correct,False,False
330,4.0,330,427.57155059999786,Go,space,0.4999658998567611,Correct,False,False
331,4.0,331,428.5708526999224,No_go,,0.0,Correct,False,False
332,4.0,332,429.56999829993583,Go,space,0.4829899000469595,Correct,False,False
333,4.0,333,430.5687473998405,Go,space,0.483724599936977,Correct,False,False
334,4.0,334,431.5679962998256,Go,space,0.4669935998972505,Correct,False,False
335,4.0,335,432.56683349981904,Go,space,0.4997587001416832,Correct,False,False
336,4.0,336,433.5663611998316,Go,space,0.5994428999256343,Correct,False,False
337,4.0,337,434.5651092999615,No_go,,0.0,Correct,False,False
338,4.0,338,435.5660060998053,Go,space,0.4651025999337435,Correct,False,False
339,4.0,339,436.5633996999823,Go,space,0.5998119998257607,Correct,False,False
340,4.0,340,437.5616620997898,Go,space,0.5509420000016689,Correct,False,False
341,4.0,341,438.5606705998071,Go,space,0.5841437000781298,Correct,False,False
342,4.0,342,439.56063159997575,Go,space,0.5862829000689089,Correct,False,False
343,4.0,343,440.5586024997756,Go,space,0.4709167999681085,Correct,False,False
344,4.0,344,441.558271399932,Go,space,0.4671910000033676,Correct,False,False
345,4.0,345,442.55972289992496,Go,space,0.5313269000034779,Correct,False,False
346,4.0,346,443.55641329986975,No_go,,0.0,Correct,False,False
347,4.0,347,444.5558836997952,No_go,,0.0,Correct,False,False
348,4.0,348,445.5551043997984,Go,space,0.5156288999132812,Correct,False,False
349,4.0,349,446.5537714997772,Go,space,0.500494500156492,Correct,False,False
350,4.0,350,447.55242089997046,Go,space,0.4506022001150995,Correct,False,False
351,4.0,351,448.5510784999933,Go,space,0.5179215001408011,Correct,False,False
352,4.0,352,449.5510038998909,Go,space,0.4833223999012261,Correct,False,False
353,4.0,353,450.5495260998141,Go,space,0.4505447000265121,Correct,False,False
354,4.0,354,451.5492521999404,Go,space,0.3671413001138717,Correct,False,False
355,4.0,355,452.547980699921,Go,space,0.4343115999363363,Correct,False,False
356,4.0,356,453.5475104998332,No_go,,0.0,Correct,False,False
357,4.0,357,454.5469107998069,No_go,,0.0,Correct,False,False
358,4.0,358,455.5452994999941,Go,space,0.5002780000213534,Correct,False,False
359,4.0,359,456.54471809999086,Go,space,0.5334411000367254,Correct,False,False
360,4.0,360,457.5473962998949,Go,space,0.4973459001630544,Correct,False,False
361,4.0,361,458.54256539978087,Go,space,0.5178877001162618,Correct,False,False
362,4.0,362,459.5426563997753,Go,space,0.4823217999655753,Correct,False,False
363,4.0,363,460.5412195997778,Go,space,0.4833303999621421,Correct,False,False
364,4.0,364,461.54013369977474,Go,space,0.517178300069645,Correct,False,False
365,4.0,365,462.5398374998477,Go,space,0.5661914001684636,Correct,False,False
366,4.0,366,463.5383687999565,Go,space,0.550725300097838,Correct,False,False
367,4.0,367,464.5370552998502,Go,space,0.6173702001105994,Correct,False,False
368,4.0,368,465.53650019993074,Go,space,0.5831742999143898,Correct,False,False
369,4.0,369,466.5378352999687,Go,space,0.5037022000178695,Correct,False,False
370,4.0,370,467.53469809982926,Go,space,0.5341624000575393,Correct,False,False
371,4.0,371,468.5337649998255,Go,space,0.4841739998664707,Correct,False,False
372,4.0,372,469.5324713999871,Go,space,0.5165179998148233,Correct,False,False
373,4.0,373,470.5321323999669,No_go,,0.0,Correct,False,False
374,4.0,374,471.5303986999206,Go,space,0.5168928999919444,Correct,False,False
375,4.0,375,472.5331010997761,Go,space,0.4966746000573039,Correct,False,False
376,4.0,376,473.52887609996833,No_go,,0.0,Correct,False,False
377,4.0,377,474.5284466999583,Go,space,0.3835584998596459,Correct,False,False
378,4.0,378,475.5272210999392,No_go,,0.0,Correct,False,False
379,4.0,379,476.5267017998267,Go,space,0.4657458001747727,Correct,False,False
380,4.0,380,477.5251808997709,No_go,,0.0,Correct,False,False
381,4.0,381,478.5245897998102,Go,space,0.4832123999949544,Correct,False,False
382,4.0,382,479.5257765999995,Go,space,0.4478482999838888,Correct,False,False
383,4.0,383,480.522189399926,No_go,,0.0,Correct,False,False
384,4.0,384,481.5209741999861,Go,space,0.4690628999378532,Correct,False,False
385,4.0,385,482.520511899842,Go,space,0.516641799826175,Correct,False,False
386,4.0,386,483.51994839985855,No_go,,0.0,Correct,False,False
387,4.0,387,484.5187415999826,Go,space,0.4665544999297708,Correct,False,False
388,4.0,388,485.51793759991415,No_go,,0.0,Correct,False,False
389,4.0,389,486.5164276999421,Go,space,0.4348055000882596,Correct,False,False
390,4.0,390,487.5157065999229,Go,space,0.5339824000839144,Correct,False,False
391,4.0,391,488.5143295999151,Go,space,0.4842944000847637,Correct,False,False
392,4.0,392,489.5133568998426,Go,space,0.5017826000694185,Correct,False,False
393,4.0,393,490.5133201999124,No_go,,0.0,Correct,False,False
394,4.0,394,491.5121329999529,No_go,,0.0,Correct,False,False
395,4.0,395,492.51171369990334,Go,space,0.5495621999725699,Correct,False,False
396,4.0,396,493.5106679999735,Go,space,0.516693500103429,Correct,False,False
397,4.0,397,494.5095687999856,Go,space,0.5001264000311494,Correct,False,False
398,4.0,398,495.5091864999849,Go,space,0.5154785998165607,Correct,False,False
399,4.0,399,496.5072462998796,Go,space,0.3847780998330563,Correct,False,False
400,4.0,400,497.5076541998424,Go,space,0.4656014998909086,Correct,False,False
401,4.0,401,498.50535449991,Go,space,0.4194925001356751,Correct,False,False
402,4.0,402,499.5053985998966,Go,space,0.4656917999964207,Correct,False,False
403,4.0,403,500.50417079986073,Go,space,0.5328815998509526,Correct,False,False
404,4.0,404,501.50304629979655,Go,space,0.449845900060609,Correct,False,False
405,5.0,405,510.7550514999312,Go,space,0.5563409000169486,Correct,False,False
406,5.0,406,511.7424681999255,No_go,space,0.5367779000662267,Incorrect,False,True
407,5.0,407,512.7422523999121,Go,space,0.4334816997870803,Correct,False,False
408,5.0,408,513.7413911998738,No_go,,0.0,Correct,False,False
409,5.0,409,514.7399063999765,Go,space,0.3997644998598844,Correct,False,False
410,5.0,410,515.739440899808,Go,space,0.4018144002184272,Correct,False,False
411,5.0,411,516.7384158999193,No_go,,0.0,Correct,False,False
412,5.0,412,517.7374613999855,Go,space,0.4838652000762522,Correct,False,False
413,5.0,413,518.7381723998114,Go,space,0.4817874999716878,Correct,False,False
414,5.0,414,519.7342163999565,Go,space,0.5013949000276625,Correct,False,False
415,5.0,415,520.7344663999975,Go,space,0.550037199864164,Correct,False,False
416,5.0,416,521.7338220998645,Go,space,0.5326312000397593,Correct,False,False
417,5.0,417,522.7325701999944,Go,space,0.5335804999340326,Correct,False,False
418,5.0,418,523.730218899902,Go,space,0.5516792999114841,Correct,False,False
419,5.0,419,524.7303766999394,Go,space,0.5666547999717295,Correct,False,False
420,5.0,420,525.7294267998077,No_go,,0.0,Correct,False,False
421,5.0,421,526.7295194999315,Go,space,0.4672254000324756,Correct,False,False
422,5.0,422,527.7284744998906,Go,space,0.6675623999908566,Correct,False,False
423,5.0,423,528.7270593999419,Go,space,0.5503696000669152,Correct,False,False
424,5.0,424,529.7265675999224,No_go,,0.0,Correct,False,False
425,5.0,425,530.7253427999094,No_go,,0.0,Correct,False,False
426,5.0,426,531.7237932998687,Go,space,0.4842649998608976,Correct,False,False
427,5.0,427,532.7234388999641,Go,space,0.517029499867931,Correct,False,False
428,5.0,428,533.7230502997991,No_go,,0.0,Correct,False,False
429,5.0,429,534.7256744999904,Go,space,0.5331852999515831,Correct,False,False
430,5.0,430,535.7207076998893,No_go,,0.0,Correct,False,False
431,5.0,431,536.7203436999116,Go,space,0.4994632001034915,Correct,False,False
432,5.0,432,537.718807999976,Go,space,0.6337071999441832,Correct,False,False
433,5.0,433,538.7179112997837,Go,space,0.5871367999352515,Correct,False,False
434,5.0,434,539.7163601999637,Go,space,0.5719649998936802,Correct,False,False
435,5.0,435,540.7162168999203,Go,space,0.5830836000386626,Correct,False,False
436,5.0,436,541.7145398999564,Go,space,0.5854712000582367,Correct,False,False
437,5.0,437,542.7142371998634,No_go,,0.0,Correct,False,False
438,5.0,438,543.7136405999772,No_go,,0.0,Correct,False,False
439,5.0,439,544.7122626998462,Go,space,0.5336406999267638,Correct,False,False
440,5.0,440,545.7113109999336,Go,space,0.4509311001747846,Correct,False,False
441,5.0,441,546.7100514997728,Go,space,0.5339881000109017,Correct,False,False
442,5.0,442,547.7100982998963,Go,space,0.5158746000379324,Correct,False,False
443,5.0,443,548.7088216999546,Go,space,0.5533727000001818,Correct,False,False
444,5.0,444,549.7074559999164,Go,space,0.5374776001553982,Correct,False,False
445,5.0,445,550.7065016999841,Go,space,0.5204375998582691,Correct,False,False
446,5.0,446,551.705642499961,Go,space,0.5191983999684453,Correct,False,False
447,5.0,447,552.7061315998435,Go,space,0.4831564000342041,Correct,False,False
448,5.0,448,553.7034605999943,Go,space,0.5166670999024063,Correct,False,False
449,5.0,449,554.7033399997745,Go,space,0.5001530000008643,Correct,False,False
450,5.0,450,555.702137599932,No_go,,0.0,Correct,False,False
451,5.0,451,556.7011186999734,Go,space,0.4501430001109838,Correct,False,False
452,5.0,452,557.6998567997944,No_go,,0.0,Correct,False,False
453,5.0,453,558.6998957998585,Go,space,0.5206019000615925,Correct,False,False
454,5.0,454,559.6981167998165,Go,space,0.6203604000620544,Correct,False,False
455,5.0,455,560.6972945998423,Go,space,0.6023407001048326,Correct,False,False
456,5.0,456,561.6963614998385,Go,space,0.582080899970606,Correct,False,False
457,5.0,457,562.6953210998327,No_go,,0.0,Correct,False,False
458,5.0,458,563.6946654999629,Go,space,0.4999627000652253,Correct,False,False
459,5.0,459,564.6931000999175,No_go,space,0.537286999868229,Incorrect,False,True
460,5.0,460,565.6926455998328,Go,space,0.4994940999895334,Correct,False,False
461,5.0,461,566.6912182997912,Go,space,0.4511320001911372,Correct,False,False
462,5.0,462,567.6905764997937,Go,space,0.4835946999955922,Correct,False,False
463,5.0,463,568.6897516997997,Go,space,0.5830278000794351,Correct,False,False
464,5.0,464,569.6884965999052,Go,space,0.4999556001275778,Correct,False,False
465,5.0,465,570.6880198998842,Go,space,0.469639599788934,Correct,False,False
466,5.0,466,571.6869676997885,Go,space,0.4350595001596957,Correct,False,False
467,5.0,467,572.6888166998979,Go,space,0.4467440999578684,Correct,False,False
468,5.0,468,573.6842913997825,Go,space,0.4501802001614123,Correct,False,False
469,5.0,469,574.6835446998011,Go,space,0.4680216000415385,Correct,False,False
470,5.0,470,575.6832009998616,No_go,,0.0,Correct,False,False
471,5.0,471,576.6821325998753,Go,space,0.5002931000199169,Correct,False,False
472,5.0,472,577.6819061997812,Go,space,0.4494140001479536,Correct,False,False
473,5.0,473,578.6805714999791,Go,space,0.3833047999069094,Correct,False,False
474,5.0,474,579.6801438999828,Go,space,0.499362199800089,Correct,False,False
475,5.0,475,580.6782673997805,Go,space,0.5346508000511676,Correct,False,False
476,5.0,476,581.6778882998042,Go,space,0.4665938001126051,Correct,False,False
477,5.0,477,582.6775532998145,No_go,,0.0,Correct,False,False
478,5.0,478,583.6752803998534,Go,space,0.4515940998680889,Correct,False,False
479,5.0,479,584.6755058998242,No_go,,0.0,Correct,False,False
480,5.0,480,585.6743802998681,Go,space,0.3835196001455188,Correct,False,False
481,5.0,481,586.6733307999093,Go,space,0.4833070000167936,Correct,False,False
482,5.0,482,587.672897899989,Go,space,0.4995143001433462,Correct,False,False
483,5.0,483,588.6719425998162,Go,space,0.5328635000623763,Correct,False,False
484,5.0,484,589.6704647999723,Go,space,0.5496410999912769,Correct,False,False
485,5.0,485,590.669373499928,Go,space,0.5667026999872178,Correct,False,False
486,5.0,486,591.6846088999882,Go,space,0.5670710999984294,Correct,False,False
487,5.0,487,592.6839324999601,No_go,,0.0,Correct,False,False
488,5.0,488,593.683104199823,Go,space,0.5000805000308901,Correct,False,False
489,5.0,489,594.682516799774,Go,space,0.5498305999208242,Correct,False,False
490,5.0,490,595.6812349997927,Go,space,0.5002550000790507,Correct,False,False
491,5.0,491,596.6802652999759,Go,space,0.483702199999243,Correct,False,False
492,5.0,492,597.6805337998085,Go,space,0.4340949000325054,Correct,False,False
493,5.0,493,598.6772989998572,Go,space,0.4516797000542283,Correct,False,False
494,5.0,494,599.6779247999657,Go,space,0.4661836000159383,Correct,False,False
495,6.0,495,608.6426491998136,Go,space,0.5265377000905573,Correct,False,False
496,6.0,496,609.6348164998926,Go,space,0.5168401000555605,Correct,False,False
497,6.0,497,610.633584599942,Go,space,0.5340040000155568,Correct,False,False
498,6.0,498,611.6324061998166,Go,space,0.4524618999566883,Correct,False,False
499,6.0,499,612.6327575999312,No_go,,0.0,Correct,False,False
500,6.0,500,613.6301064998843,Go,space,0.3677304000593722,Correct,False,False
501,6.0,501,614.6299531999975,No_go,,0.0,Correct,False,False
502,6.0,502,615.6291313997936,Go,space,0.4668959002010524,Correct,False,False
503,6.0,503,616.6300065999385,Go,space,0.4820607998408377,Correct,False,False
504,6.0,504,617.6288406997919,No_go,,0.0,Correct,False,False
505,6.0,505,618.6260005999357,Go,space,0.3837027000263333,Correct,False,False
506,6.0,506,619.6250730999745,No_go,,0.0,Correct,False,False
507,6.0,507,620.6273334999569,No_go,,0.0,Correct,False,False
508,6.0,508,621.6244689999148,Go,space,0.4828935000114143,Correct,False,False
509,6.0,509,622.6227742999326,Go,space,0.520827200030908,Correct,False,False
510,6.0,510,623.6213163998909,Go,space,0.5174501999281347,Correct,False,False
511,6.0,511,624.6205245999154,No_go,,0.0,Correct,False,False
512,6.0,512,625.6201262997929,Go,space,0.4831914999522269,Correct,False,False
513,6.0,513,626.6187772999983,Go,space,0.5846935000736266,Correct,False,False
514,6.0,514,627.6192162998486,Go,space,0.551857199985534,Correct,False,False
515,6.0,515,628.6168124999385,Go,space,0.541636599926278,Correct,False,False
516,6.0,516,629.6155736998189,Go,space,0.4687779999803751,Correct,False,False
517,6.0,517,630.6149010998197,Go,space,0.5673764999955893,Correct,False,False
518,6.0,518,631.6138124999125,Go,space,0.5335613000206649,Correct,False,False
519,6.0,519,632.6126912999898,Go,space,0.4674376999028027,Correct,False,False
520,6.0,520,633.6116587999277,Go,space,0.4507178999483585,Correct,False,False
521,6.0,521,634.6106366999447,Go,space,0.4672186002135277,Correct,False,False
522,6.0,522,635.6111263998318,Go,space,0.4826068999245763,Correct,False,False
523,6.0,523,636.6086311999243,No_go,,0.0,Correct,False,False
524,6.0,524,637.6076868998352,Go,space,0.404910100158304,Correct,False,False
525,6.0,525,638.6066455999389,Go,space,0.467194499913603,Correct,False,False
526,6.0,526,639.6057685997803,No_go,,0.0,Correct,False,False
527,6.0,527,640.6048152998555,Go,space,0.4841316000092774,Correct,False,False
528,6.0,528,641.6041535998229,Go,space,0.4534193000290543,Correct,False,False
529,6.0,529,642.6031221000012,Go,space,0.5181553000584245,Correct,False,False
530,6.0,530,643.6021680999547,No_go,,0.0,Correct,False,False
531,6.0,531,644.6017880998552,Go,space,0.485066199908033,Correct,False,False
532,6.0,532,645.6010290998966,Go,space,0.4821435001213103,Correct,False,False
533,6.0,533,646.5998204997741,No_go,,0.0,Correct,False,False
534,6.0,534,647.5989427999593,Go,space,0.4713123999536037,Correct,False,False
535,6.0,535,648.5978892999701,No_go,,0.0,Correct,False,False
536,6.0,536,649.5970934999641,Go,space,0.4831580999307334,Correct,False,False
537,6.0,537,650.5959765999578,Go,space,0.6337375999428332,Correct,False,False
538,6.0,538,651.5949424998835,No_go,,0.0,Correct,False,False
539,6.0,539,652.5938425997738,Go,space,0.5498543998692185,Correct,False,False
540,6.0,540,653.5934435999952,Go,space,0.5834598001092672,Correct,False,False
541,6.0,541,654.5928483998869,Go,space,0.4669674001634121,Correct,False,False
542,6.0,542,655.5928881999571,Go,space,0.4690680000931024,Correct,False,False
543,6.0,543,656.5912956998218,Go,space,0.5156547001097351,Correct,False,False
544,6.0,544,657.5891898998525,Go,space,0.4388540000654757,Correct,False,False
545,6.0,545,658.5884530998301,Go,space,0.5001970999874175,Correct,False,False
546,6.0,546,659.5877634999342,Go,space,0.4330131001770496,Correct,False,False
547,6.0,547,660.5870857997797,Go,space,0.4655649999622255,Correct,False,False
548,6.0,548,661.5864388998598,Go,space,0.434045200003311,Correct,False,False
549,6.0,549,662.5851280998904,Go,space,0.434172400040552,Correct,False,False
550,6.0,550,663.5840166998096,Go,space,0.483144799945876,Correct,False,False
551,6.0,551,664.5823112998623,Go,space,0.4849394999910146,Correct,False,False
552,6.0,552,665.5820339999627,Go,space,0.4840581999160349,Correct,False,False
553,6.0,553,666.5818037998397,Go,space,0.4843290999997407,Correct,False,False
554,6.0,554,667.5808274999727,No_go,,0.0,Correct,False,False
555,6.0,555,668.5797475997824,Go,space,0.4830022999085486,Correct,False,False
556,6.0,556,669.577880699886,No_go,,0.0,Correct,False,False
557,6.0,557,670.5779553998727,Go,space,0.465704700211063,Correct,False,False
558,6.0,558,671.577824199805,No_go,,0.0,Correct,False,False
559,6.0,559,672.5751597997732,Go,space,0.5501951000187546,Correct,False,False
560,6.0,560,673.5750423998106,Go,space,0.5160566000267863,Correct,False,False
561,6.0,561,674.5738506999332,Go,space,0.519376200158149,Correct,False,False
562,6.0,562,675.5730863998178,Go,space,0.5163113998714834,Correct,False,False
563,6.0,563,676.5719991999213,Go,space,0.5334413999225944,Correct,False,False
564,6.0,564,677.5716297999024,Go,space,0.5164524000138044,Correct,False,False
565,6.0,565,678.5702384999022,Go,space,0.5168289998546243,Correct,False,False
566,6.0,566,679.5727430998813,No_go,,0.0,Correct,False,False
567,6.0,567,680.5683925999328,Go,space,0.4664723000023514,Correct,False,False
568,6.0,568,681.5671423999593,Go,space,0.483593099983409,Correct,False,False
569,6.0,569,682.5670680999756,No_go,space,0.8485427999403328,Incorrect,False,True
570,6.0,570,683.5663619998377,No_go,space,0.4496023000683635,Incorrect,False,True
571,6.0,571,684.5643242998049,Go,space,0.4502242000307888,Correct,False,False
572,6.0,572,685.564036199823,Go,space,0.4715611001010984,Correct,False,False
573,6.0,573,686.5627578999847,Go,space,0.4839787001255899,Correct,False,False
574,6.0,574,687.5648280999158,Go,space,0.4974005001131445,Correct,False,False
575,6.0,575,688.5603919997811,Go,space,0.4680955000221729,Correct,False,False
576,6.0,576,689.5608958997764,Go,space,0.4502020000945776,Correct,False,False
577,6.0,577,690.5593447999563,Go,space,0.503431900171563,Correct,False,False
578,6.0,578,691.5584212997928,Go,space,0.4667679998092353,Correct,False,False
579,6.0,579,692.5572781998198,Go,space,0.4685669001191854,Correct,False,False
580,6.0,580,693.5566682999488,Go,space,0.466558099957183,Correct,False,False
581,6.0,581,694.5554246997926,Go,space,0.46680249995552,Correct,False,False
582,6.0,582,695.554287499981,Go,space,0.4168290998786688,Correct,False,False
583,6.0,583,696.553450099891,Go,space,0.4336491997819394,Correct,False,False
584,6.0,584,697.553137099836,Go,space,0.4498513999860734,Correct,False,False
