,block_index,trial,trial_onset(s),stimulus_type,resp_key,rt(s),correct,is_omission,is_comission
0,,0,74.38576810000086,No_go,,0.0,Correct,False,False
1,,1,76.40315340000234,Go,space,0.4247016000008443,Correct,False,False
2,,2,77.4102658999982,Go,space,0.4502790999977151,Correct,False,False
3,,3,78.4266850999993,Go,space,0.3326400000005378,Correct,False,False
4,,4,79.4417964000022,Go,space,0.3503896999973221,Correct,False,False
5,,5,80.45789269999659,Go,space,0.3994917999953031,Correct,False,False
6,,6,81.47309929999756,Go,space,0.415891399999964,Correct,False,False
7,,7,82.48889320000308,Go,space,0.3669146999964141,Correct,False,False
8,,8,83.50455240000156,Go,space,0.4507156999970902,Correct,False,False
9,,9,84.52060889999848,Go,space,0.3693051999944146,Correct,False,False
10,,10,85.53498099999706,Go,space,0.5845839000030537,Correct,False,False
11,,11,86.55181869999797,Go,space,0.4165886999981012,Correct,False,False
12,,12,87.5676175999979,No_go,space,0.4335436999972444,Incorrect,False,True
13,,13,88.58425669999997,No_go,space,0.8153739999979734,Incorrect,False,True
14,,14,89.5992677999966,No_go,,0.0,Correct,False,False
15,,15,91.62243370000216,No_go,,0.0,Correct,False,False
16,,16,93.63604379999742,Go,space,0.4431082000010065,Correct,False,False
17,,17,94.64449050000258,Go,space,0.5502328000002308,Correct,False,False
18,,18,95.66069859999698,Go,space,0.5501108999960707,Correct,False,False
19,,19,96.67623710000044,Go,space,0.4328284000002895,Correct,False,False
20,,20,97.69159450000006,No_go,space,0.4334394999968936,Incorrect,False,True
21,,21,98.70725400000084,Go,space,0.5164702000038233,Correct,False,False
22,,22,99.72301770000196,Go,space,0.4840307999984361,Correct,False,False
23,,23,100.73864660000254,Go,space,0.5005240999962552,Correct,False,False
24,,24,101.75485309999932,No_go,space,0.4497030000056838,Incorrect,False,True
25,,25,102.7702339000025,Go,space,0.6162148999937926,Correct,False,False
26,,26,103.78637860000164,Go,space,0.4165073999974993,Correct,False,False
27,,27,104.80161229999794,Go,space,0.3836176000040723,Correct,False,False
28,,28,105.81700329999876,Go,space,0.5002714000002015,Correct,False,False
29,,29,106.8330050000004,Go,space,0.4002440000040224,Correct,False,False
30,,30,107.84880279999923,Go,space,0.416596600000048,Correct,False,False
31,,31,108.86463189999633,Go,space,0.4336881000053836,Correct,False,False
32,,32,109.88114209999912,Go,space,0.4172258000035072,Correct,False,False
33,,33,110.89610869999888,Go,space,0.4497381999972276,Correct,False,False
34,,34,111.91131560000213,No_go,space,0.4005739999993238,Incorrect,False,True
35,,35,112.9272981000031,Go,space,0.5845829999962007,Correct,False,False
36,,36,113.94326880000152,Go,space,0.4340177999984007,Correct,False,False
37,,37,114.95882030000212,Go,space,0.516589799997746,Correct,False,False
38,,38,115.9746623999963,Go,space,0.4163480999995954,Correct,False,False
39,,39,116.98990069999854,No_go,space,0.3010930999953416,Incorrect,False,True
40,,40,118.0062562000021,Go,space,0.3829986000055214,Correct,False,False
41,,41,119.02127450000262,Go,space,0.3180342999985441,Correct,False,False
42,,42,120.03723570000147,Go,space,0.3835288999980548,Correct,False,False
43,,43,121.0527338000029,Go,space,0.3833661999960895,Correct,False,False
44,,44,122.06877410000016,Go,space,0.533703199995216,Correct,False,False
45,1.0,45,129.99195460000192,Go,space,0.585798000000068,Correct,False,False
46,1.0,46,130.99417689999973,No_go,space,0.4659099999989848,Incorrect,False,True
47,1.0,47,131.99266519999946,Go,space,0.4180897999976878,Correct,False,False
48,1.0,48,132.99141070000042,Go,space,0.3836985000016284,Correct,False,False
49,1.0,49,133.9905504999988,No_go,space,0.4502487999998266,Incorrect,False,True
50,1.0,50,134.9897720000008,No_go,,0.0,Correct,False,False
51,1.0,51,135.98882579999918,No_go,,0.0,Correct,False,False
52,1.0,52,136.98824030000105,Go,space,0.3834534999987227,Correct,False,False
53,1.0,53,137.98729369999637,No_go,,0.0,Correct,False,False
54,1.0,54,138.9861830000009,Go,space,0.3838730999996187,Correct,False,False
55,1.0,55,139.98511850000068,Go,space,0.3668519999991986,Correct,False,False
56,1.0,56,140.98420539999643,Go,space,0.4171205000020563,Correct,False,False
57,1.0,57,141.98368420000045,Go,space,0.4830905999988317,Correct,False,False
58,1.0,58,142.98225269999966,Go,space,0.567387900002359,Correct,False,False
59,1.0,59,143.98236380000162,Go,space,0.5160710999989533,Correct,False,False
60,1.0,60,144.980948299999,No_go,,0.0,Correct,False,False
61,1.0,61,145.97963080000045,Go,space,0.3502780999988317,Correct,False,False
62,1.0,62,146.97915520000242,No_go,space,0.3838857000009739,Incorrect,False,True
63,1.0,63,147.97788089999813,Go,space,0.4332560999973793,Correct,False,False
64,1.0,64,148.97675999999774,No_go,space,0.3840975999992224,Incorrect,False,True
65,1.0,65,149.9758565000011,Go,space,0.5010677000027499,Correct,False,False
66,1.0,66,150.97521560000314,Go,space,0.4499799000041093,Correct,False,False
67,1.0,67,151.9738034999973,Go,space,0.5331456999992952,Correct,False,False
68,1.0,68,152.97357580000244,Go,space,0.4674869000009494,Correct,False,False
69,1.0,69,153.9728952000005,Go,space,0.4991628999996464,Correct,False,False
70,1.0,70,154.97127290000208,Go,space,0.5999732000054792,Correct,False,False
71,1.0,71,155.97049909999623,Go,space,0.4170548999973107,Correct,False,False
72,1.0,72,156.97054750000098,No_go,,0.0,Correct,False,False
73,1.0,73,157.96829330000037,Go,space,0.3506813999993028,Correct,False,False
74,1.0,74,158.9676066000029,Go,space,0.4001305999991018,Correct,False,False
75,1.0,75,159.96682719999808,Go,space,0.599843800002418,Correct,False,False
76,1.0,76,160.9653799000007,Go,space,0.4839082999969832,Correct,False,False
77,1.0,77,161.9646286999996,Go,space,0.584241699994891,Correct,False,False
78,1.0,78,162.96374710000237,Go,space,0.6999091999969096,Correct,False,False
79,1.0,79,163.96328699999867,Go,space,0.7492714000036358,Correct,False,False
80,1.0,80,164.96224059999804,Go,space,0.6162273000009009,Correct,False,False
81,1.0,81,165.96067659999972,No_go,,0.0,Correct,False,False
82,1.0,82,166.96062579999852,Go,space,0.4160995999991428,Correct,False,False
83,1.0,83,167.959357300002,Go,space,0.4835146000041277,Correct,False,False
84,1.0,84,168.95846029999666,Go,space,0.6993819999988773,Correct,False,False
85,1.0,85,169.95742939999764,Go,space,0.8327819999976782,Correct,False,False
86,1.0,86,170.95677630000137,Go,space,0.8663051999974414,Correct,False,False
87,1.0,87,171.95555230000173,No_go,,0.0,Correct,False,False
88,1.0,88,172.9543055999966,Go,space,0.4002337999991141,Correct,False,False
89,1.0,89,173.95366110000032,Go,space,0.4834563000040361,Correct,False,False
90,1.0,90,174.95291429999634,Go,space,0.6495420999999624,Correct,False,False
91,1.0,91,175.9519708000007,Go,space,0.8184309999996913,Correct,False,False
92,1.0,92,176.95085850000032,Go,space,0.6669480999989901,Correct,False,False
93,1.0,93,177.94922249999945,Go,space,0.6188134000040009,Correct,False,False
94,1.0,94,178.94888479999645,Go,space,0.6835888999994495,Correct,False,False
95,1.0,95,179.94762810000248,Go,space,0.6168408000012278,Correct,False,False
96,1.0,96,180.94670400000177,Go,space,0.6671917000057874,Correct,False,False
97,1.0,97,181.94587540000063,Go,space,0.5503582999954233,Correct,False,False
98,1.0,98,182.944839900003,Go,space,0.70178269999451,Correct,False,False
99,1.0,99,183.94401890000157,Go,space,0.7497269000014057,Correct,False,False
100,1.0,100,184.94326539999747,Go,space,0.9328287999960594,Correct,False,False
101,1.0,101,185.94191929999943,Go,space,0.7674874000003911,Correct,False,False
102,1.0,102,186.94177040000068,Go,,0.0,Incorrect,True,False
103,1.0,103,187.94057389999944,Go,space,0.0510905999981332,Correct,False,False
104,1.0,104,188.93951070000185,Go,space,0.3168184000023757,Correct,False,False
105,1.0,105,189.93914550000045,Go,space,0.3831272999959765,Correct,False,False
106,1.0,106,190.9390876999969,Go,space,0.4493049000011524,Correct,False,False
107,1.0,107,191.93696949999867,Go,space,0.4000763000003644,Correct,False,False
108,1.0,108,192.93600889999647,No_go,,0.0,Correct,False,False
109,1.0,109,193.93431430000052,Go,space,0.4168945999990683,Correct,False,False
110,1.0,110,194.93322230000197,Go,space,0.4508452999943984,Correct,False,False
111,1.0,111,195.9322788999998,Go,space,0.8337544000023627,Correct,False,False
112,1.0,112,196.93237470000167,Go,space,0.8161975999973947,Correct,False,False
113,1.0,113,197.93136419999792,No_go,,0.0,Correct,False,False
114,1.0,114,198.93019410000124,Go,space,0.5505460999993375,Correct,False,False
115,1.0,115,199.92879399999947,Go,space,0.6837079000033555,Correct,False,False
116,1.0,116,200.9284539,No_go,,0.0,Correct,False,False
117,1.0,117,201.9278674000016,No_go,,0.0,Correct,False,False
118,1.0,118,202.92669210000167,Go,space,0.4023257999942871,Correct,False,False
119,1.0,119,203.9256494000001,Go,space,0.4334209000007831,Correct,False,False
120,1.0,120,204.924874700002,Go,space,0.5332516000053147,Correct,False,False
121,1.0,121,205.92409410000252,Go,space,0.5159482000017306,Correct,False,False
122,1.0,122,206.9223052000016,Go,space,0.4662724000008893,Correct,False,False
123,1.0,123,207.9208504999988,Go,space,0.6363973999978043,Correct,False,False
124,1.0,124,208.92037130000244,Go,space,0.6337110000022221,Correct,False,False
125,1.0,125,209.91853609999816,Go,space,0.6672994999971706,Correct,False,False
126,1.0,126,210.91833380000023,Go,space,0.6667739000040456,Correct,False,False
127,1.0,127,211.91798369999745,Go,space,0.9493585000018356,Correct,False,False
128,1.0,128,212.9167260000031,Go,space,0.7826579000029597,Correct,False,False
129,1.0,129,213.9156851000007,Go,space,0.7831808000046294,Correct,False,False
130,1.0,130,214.91504130000249,No_go,,0.0,Correct,False,False
131,1.0,131,215.91447509999853,No_go,,0.0,Correct,False,False
132,1.0,132,216.91308220000064,Go,space,0.4498892999981763,Correct,False,False
133,1.0,133,217.91192549999687,Go,space,0.5168212999997195,Correct,False,False
134,1.0,134,218.9109785999972,No_go,,0.0,Correct,False,False
135,2.0,135,231.33754849999968,Go,space,0.6125708999970811,Correct,False,False
136,2.0,136,232.33221459999916,Go,space,0.4338306999998167,Correct,False,False
137,2.0,137,233.33149579999736,Go,space,0.4500780000016675,Correct,False,False
138,2.0,138,234.330294899999,Go,space,0.4334833999964758,Correct,False,False
139,2.0,139,235.3297160000002,Go,space,0.5501599999988684,Correct,False,False
140,2.0,140,236.3286135000017,Go,space,0.566836099998909,Correct,False,False
141,2.0,141,237.3285876000009,No_go,,0.0,Correct,False,False
142,2.0,142,238.32635019999725,Go,space,0.3666133000006084,Correct,False,False
143,2.0,143,239.32553239999837,Go,space,0.4002943999948911,Correct,False,False
144,2.0,144,240.3244425000012,Go,space,0.5335450999991735,Correct,False,False
145,2.0,145,241.32359870000076,Go,space,0.6667488999955822,Correct,False,False
146,2.0,146,242.3223702999967,Go,space,0.7839481999981217,Correct,False,False
147,2.0,147,243.3225817999992,Go,space,0.8495212999987416,Correct,False,False
148,2.0,148,244.32138819999815,Go,space,0.7152237999980571,Correct,False,False
149,2.0,149,245.32010330000048,No_go,,0.0,Correct,False,False
150,2.0,150,246.31934239999828,Go,space,0.3828241000010166,Correct,False,False
151,2.0,151,247.3182409000001,No_go,,0.0,Correct,False,False
152,2.0,152,248.3170421000032,Go,space,0.384034500006237,Correct,False,False
153,2.0,153,249.3167164999977,Go,space,0.5493908999997075,Correct,False,False
154,2.0,154,250.31583390000011,Go,space,0.7839520999987144,Correct,False,False
155,2.0,155,251.3146907999981,Go,space,0.7666471999982605,Correct,False,False
156,2.0,156,252.31287580000208,Go,space,0.7506787000020267,Correct,False,False
157,2.0,157,253.31251650000195,No_go,,0.0,Correct,False,False
158,2.0,158,254.31201180000065,Go,space,0.4170000000012805,Correct,False,False
159,2.0,159,255.311311700003,Go,space,0.5500073000002885,Correct,False,False
160,2.0,160,256.30938510000124,Go,space,0.7172444999960135,Correct,False,False
161,2.0,161,257.30905099999654,No_go,,0.0,Correct,False,False
162,2.0,162,258.3087962999998,No_go,,0.0,Correct,False,False
163,2.0,163,259.3072142000019,No_go,,0.0,Correct,False,False
164,2.0,164,260.3065818999967,No_go,,0.0,Correct,False,False
165,2.0,165,261.30480859999807,Go,space,0.4841832000020076,Correct,False,False
166,2.0,166,262.3044523999997,Go,space,0.5327776999984053,Correct,False,False
167,2.0,167,263.3036743999983,Go,space,0.6160594999964815,Correct,False,False
168,2.0,168,264.30230160000065,No_go,,0.0,Correct,False,False
169,2.0,169,265.3017292000004,Go,space,0.6838579999966896,Correct,False,False
170,2.0,170,266.30038619999686,No_go,,0.0,Correct,False,False
171,2.0,171,267.2997159000006,No_go,,0.0,Correct,False,False
172,2.0,172,268.2989686000001,Go,space,0.449742699995113,Correct,False,False
173,2.0,173,269.29836929999874,No_go,,0.0,Correct,False,False
174,2.0,174,270.297140900002,Go,space,0.5503922999996576,Correct,False,False
175,2.0,175,271.29592279999633,Go,space,0.5671348000032594,Correct,False,False
176,2.0,176,272.2949951999981,Go,space,0.5334302999981446,Correct,False,False
177,2.0,177,273.2947626000023,Go,space,0.6322044999978971,Correct,False,False
178,2.0,178,274.2927378000022,Go,space,0.6003784999993513,Correct,False,False
179,2.0,179,275.2920623000027,Go,space,0.6671484999969834,Correct,False,False
180,2.0,180,276.29127690000314,Go,space,0.7996956999995746,Correct,False,False
181,2.0,181,277.2902073000005,Go,space,0.815174899995327,Correct,False,False
182,2.0,182,278.28919419999875,Go,space,0.7663663999992423,Correct,False,False
183,2.0,183,279.2879555999971,Go,space,0.6513919999997597,Correct,False,False
184,2.0,184,280.2877601,No_go,,0.0,Correct,False,False
185,2.0,185,281.28608749999694,Go,space,0.5669355999998515,Correct,False,False
186,2.0,186,282.2856027000016,Go,space,0.6999525999999605,Correct,False,False
187,2.0,187,283.28446840000106,Go,space,0.6165189000021201,Correct,False,False
188,2.0,188,284.28326740000193,Go,space,0.5671493999980157,Correct,False,False
189,2.0,189,285.28291609999724,Go,space,0.6830323000031058,Correct,False,False
190,2.0,190,286.2816726000019,Go,space,0.849363599998469,Correct,False,False
191,2.0,191,287.28177719999803,Go,space,0.7482691999975941,Correct,False,False
192,2.0,192,288.2798063000009,Go,space,0.7664841000005254,Correct,False,False
193,2.0,193,289.2786816000007,Go,space,0.6163555000021006,Correct,False,False
194,2.0,194,290.2775887000025,No_go,,0.0,Correct,False,False
195,2.0,195,291.2769629999966,No_go,,0.0,Correct,False,False
196,2.0,196,292.27596629999607,Go,space,0.4490525000001071,Correct,False,False
197,2.0,197,293.2750884999987,Go,space,0.8833700999966823,Correct,False,False
198,2.0,198,294.2733303999994,No_go,,0.0,Correct,False,False
199,2.0,199,295.27298000000155,Go,space,0.5011593000017456,Correct,False,False
200,2.0,200,296.27242719999776,Go,space,0.4498757000037585,Correct,False,False
201,2.0,201,297.2716954999996,No_go,,0.0,Correct,False,False
202,2.0,202,298.2706620999961,Go,space,0.3841990000000805,Correct,False,False
203,2.0,203,299.2698976000029,Go,space,0.5013268000038806,Correct,False,False
204,2.0,204,300.2688676999969,Go,space,0.5667848000011873,Correct,False,False
205,2.0,205,301.26832699999795,Go,,0.0,Incorrect,True,False
206,2.0,206,302.266959200002,Go,space,0.2165049000032013,Correct,False,False
207,2.0,207,303.2658760999984,Go,space,0.3171174000017345,Correct,False,False
208,2.0,208,304.265496,Go,space,0.4340097999956924,Correct,False,False
209,2.0,209,305.26348580000194,Go,space,0.4675351999976556,Correct,False,False
210,2.0,210,306.2644997000025,Go,space,0.7156603999974323,Correct,False,False
211,2.0,211,307.2625743999961,Go,space,0.618075400001544,Correct,False,False
212,2.0,212,308.2610163999998,Go,space,0.667027199997392,Correct,False,False
213,2.0,213,309.26045709999744,Go,space,0.6501624000011361,Correct,False,False
214,2.0,214,310.25993729999755,Go,space,0.5487427999978536,Correct,False,False
215,2.0,215,311.25798689999647,Go,space,0.5175983000008273,Correct,False,False
216,2.0,216,312.2579478999978,Go,space,0.4011661999975331,Correct,False,False
217,2.0,217,313.2570648999972,Go,space,0.6328451000008499,Correct,False,False
218,2.0,218,314.25529860000097,Go,space,0.4836893000028794,Correct,False,False
219,2.0,219,315.2550764999978,No_go,space,0.4173512999986997,Incorrect,False,True
220,2.0,220,316.25446830000146,Go,space,0.3830229999948642,Correct,False,False
221,2.0,221,317.2528003999978,Go,space,0.3845845999967423,Correct,False,False
222,2.0,222,318.2515254999962,Go,space,0.5354081999976188,Correct,False,False
223,2.0,223,319.2508295000007,Go,space,0.4501282000055653,Correct,False,False
224,2.0,224,320.2505986999968,Go,space,0.5999568999977782,Correct,False,False
225,3.0,225,333.7790577999985,Go,space,0.4598045000020647,Correct,False,False
226,3.0,226,334.7693900000013,Go,space,0.3835970000000088,Correct,False,False
227,3.0,227,335.76850549999654,No_go,,0.0,Correct,False,False
228,3.0,228,336.7683229000031,Go,space,0.2668009999979404,Correct,False,False
229,3.0,229,337.7671460999991,No_go,,0.0,Correct,False,False
230,3.0,230,338.766352599996,No_go,,0.0,Correct,False,False
231,3.0,231,339.76573279999866,Go,space,0.499734900004114,Correct,False,False
232,3.0,232,340.76457529999607,No_go,,0.0,Correct,False,False
233,3.0,233,341.76326790000167,No_go,,0.0,Correct,False,False
234,3.0,234,342.7629444999984,Go,space,0.4159648000058951,Correct,False,False
235,3.0,235,343.761648300002,Go,space,0.4166796999998041,Correct,False,False
236,3.0,236,344.7606065,Go,space,0.5000824000017019,Correct,False,False
237,3.0,237,345.7598714999985,Go,space,0.483558300002187,Correct,False,False
238,3.0,238,346.7576012999998,Go,space,0.4511806000009528,Correct,False,False
239,3.0,239,347.75725729999976,Go,space,0.3835825999994995,Correct,False,False
240,3.0,240,348.7573619000032,Go,space,0.4013787000003503,Correct,False,False
241,3.0,241,349.7562594999981,Go,space,0.4333588000008603,Correct,False,False
242,3.0,242,350.7552300000025,Go,space,0.4002886000016588,Correct,False,False
243,3.0,243,351.75438920000306,Go,space,0.4499701999957324,Correct,False,False
244,3.0,244,352.7529519000018,Go,space,0.3500880999999936,Correct,False,False
245,3.0,245,353.7518984999988,No_go,,0.0,Correct,False,False
246,3.0,246,354.7515478999994,Go,space,0.4674356000032276,Correct,False,False
247,3.0,247,355.7505988999983,Go,space,0.5501747999951476,Correct,False,False
248,3.0,248,356.7498734999972,Go,space,0.5834812999964925,Correct,False,False
249,3.0,249,357.7486543999985,Go,space,0.567952499994135,Correct,False,False
250,3.0,250,358.7475879999984,Go,space,0.5523573000027682,Correct,False,False
251,3.0,251,359.74643549999746,Go,space,0.4836144000000786,Correct,False,False
252,3.0,252,360.74599869999656,Go,space,0.4676475999949616,Correct,False,False
253,3.0,253,361.744746999997,Go,space,0.3669584000017494,Correct,False,False
254,3.0,254,362.7444868000021,Go,space,0.3505829999994603,Correct,False,False
255,3.0,255,363.7430480999974,Go,space,0.4332884000032209,Correct,False,False
256,3.0,256,364.742185199997,Go,space,0.4171366999944439,Correct,False,False
257,3.0,257,365.7412234000003,Go,space,0.4165200999996159,Correct,False,False
258,3.0,258,366.740292399998,Go,space,0.5680112999980338,Correct,False,False
259,3.0,259,367.7396912999975,Go,space,0.7997027000019443,Correct,False,False
260,3.0,260,368.7389409000025,No_go,,0.0,Correct,False,False
261,3.0,261,369.73689829999785,Go,space,0.568534300000465,Correct,False,False
262,3.0,262,370.7366236000016,Go,space,0.4328314000013051,Correct,False,False
263,3.0,263,371.73526069999934,Go,space,0.2339782999988529,Correct,False,False
264,3.0,264,372.7347993000003,Go,space,0.2838334999978542,Correct,False,False
265,3.0,265,373.7336169999981,Go,space,0.1835774999999557,Correct,False,False
266,3.0,266,374.73270590000175,Go,space,0.2007425999981933,Correct,False,False
267,3.0,267,375.7316731000028,Go,space,0.0841084999992745,Correct,False,False
268,3.0,268,376.7306788999995,No_go,space,0.2340399000022444,Incorrect,False,True
269,3.0,269,377.7299972999972,Go,space,0.3838829000014812,Correct,False,False
270,3.0,270,378.72934240000177,Go,space,0.4166197000013198,Correct,False,False
271,3.0,271,379.7278156999964,Go,space,0.4505894999965676,Correct,False,False
272,3.0,272,380.72683320000215,Go,space,0.6843010000011418,Correct,False,False
273,3.0,273,381.7261916999996,Go,space,0.6332454000003054,Correct,False,False
274,3.0,274,382.72546760000114,Go,space,0.699356799996167,Correct,False,False
275,3.0,275,383.7245027000026,Go,space,0.6163072999988799,Correct,False,False
276,3.0,276,384.7234314000016,Go,space,0.3996119000003091,Correct,False,False
277,3.0,277,385.7221502999964,No_go,,0.0,Correct,False,False
278,3.0,278,386.72167320000153,Go,space,0.3850844000044162,Correct,False,False
279,3.0,279,387.7203284999996,No_go,,0.0,Correct,False,False
280,3.0,280,388.7197019000014,No_go,space,0.3498161000024993,Incorrect,False,True
281,3.0,281,389.7190017999965,Go,space,0.383642000000691,Correct,False,False
282,3.0,282,390.7174776999964,Go,space,0.5346235999968485,Correct,False,False
283,3.0,283,391.717023899997,No_go,,0.0,Correct,False,False
284,3.0,284,392.715841199999,Go,space,0.4501638000001549,Correct,False,False
285,3.0,285,393.7152638999978,Go,space,0.7167956999983289,Correct,False,False
286,3.0,286,394.71454200000153,Go,space,0.716172500004177,Correct,False,False
287,3.0,287,395.7132232000004,Go,space,0.7327597999974387,Correct,False,False
288,3.0,288,396.712008100003,Go,space,0.7509541999970679,Correct,False,False
289,3.0,289,397.7116890999969,No_go,,0.0,Correct,False,False
290,3.0,290,398.7106754999986,Go,space,0.5662325000012061,Correct,False,False
291,3.0,291,399.7096286000015,Go,space,0.6664915000001201,Correct,False,False
292,3.0,292,400.7084329999998,Go,space,0.6855389999982435,Correct,False,False
293,3.0,293,401.7078352999961,No_go,,0.0,Correct,False,False
294,3.0,294,402.70599870000297,Go,space,0.4671835000044666,Correct,False,False
295,3.0,295,403.7059150999994,Go,space,0.6499621000039042,Correct,False,False
296,3.0,296,404.7047184999974,No_go,,0.0,Correct,False,False
297,3.0,297,405.7038986999978,Go,space,0.4318848999973852,Correct,False,False
298,3.0,298,406.70278880000114,Go,space,0.6667946000015945,Correct,False,False
299,3.0,299,407.7016918000008,Go,space,0.5517261999993934,Correct,False,False
300,3.0,300,408.7007885999992,Go,space,0.5672716999979457,Correct,False,False
301,3.0,301,409.7000616000005,Go,space,0.6162630999970133,Correct,False,False
302,3.0,302,410.6991175000003,No_go,,0.0,Correct,False,False
303,3.0,303,411.6983623999986,Go,space,0.4828169999964302,Correct,False,False
304,3.0,304,412.69764739999664,Go,space,0.6161601999992854,Correct,False,False
305,3.0,305,413.696698300002,Go,space,0.4993805999984033,Correct,False,False
306,3.0,306,414.6955053999991,Go,space,0.4335699000002933,Correct,False,False
307,3.0,307,415.69437130000006,No_go,space,0.4169705000022077,Incorrect,False,True
308,3.0,308,416.6934334999969,Go,space,0.4011373000030289,Correct,False,False
309,3.0,309,417.6927030000006,Go,space,0.4177526999992551,Correct,False,False
310,3.0,310,418.6916476999977,No_go,,0.0,Correct,False,False
311,3.0,311,419.6908914000014,Go,space,0.5506034999998519,Correct,False,False
312,3.0,312,420.6899609000029,Go,space,0.5996720999974059,Correct,False,False
313,3.0,313,421.69023690000176,Go,space,0.6993435000040336,Correct,False,False
314,3.0,314,422.68903319999663,Go,space,0.7151131999999052,Correct,False,False
315,4.0,315,434.924337299999,Go,space,0.6019722999990336,Correct,False,False
316,4.0,316,435.92542420000245,Go,space,0.3495728999987477,Correct,False,False
317,4.0,317,436.9248213000028,Go,space,0.3681473000033293,Correct,False,False
318,4.0,318,437.9236506000016,No_go,,0.0,Correct,False,False
319,4.0,319,438.9228877999994,Go,space,0.4333512000011978,Correct,False,False
320,4.0,320,439.9220052000019,No_go,,0.0,Correct,False,False
321,4.0,321,440.9209394999998,Go,space,0.4331300999983796,Correct,False,False
322,4.0,322,441.9204925000013,Go,space,0.5993828999999096,Correct,False,False
323,4.0,323,442.919069800002,Go,space,0.6483193000021856,Correct,False,False
324,4.0,324,443.9181612000029,Go,space,0.701706899999408,Correct,False,False
325,4.0,325,444.9175756999976,Go,space,0.6492447000055108,Correct,False,False
326,4.0,326,445.9161538999979,No_go,,0.0,Correct,False,False
327,4.0,327,446.9157593999989,Go,space,0.4997866999983671,Correct,False,False
328,4.0,328,447.9144592000012,Go,space,0.4844999000051757,Correct,False,False
329,4.0,329,448.91294979999657,No_go,,0.0,Correct,False,False
330,4.0,330,449.91277380000247,Go,space,0.6829510000025039,Correct,False,False
331,4.0,331,450.9112567999982,Go,space,0.6834024999989197,Correct,False,False
332,4.0,332,451.9106554000027,Go,space,0.5997243000019807,Correct,False,False
333,4.0,333,452.90976180000143,No_go,,0.0,Correct,False,False
334,4.0,334,453.9083994999965,Go,space,0.4174538000006578,Correct,False,False
335,4.0,335,454.9081157999972,No_go,,0.0,Correct,False,False
336,4.0,336,455.9070081999962,Go,space,0.5999759000042104,Correct,False,False
337,4.0,337,456.90644600000087,Go,space,0.616279099995154,Correct,False,False
338,4.0,338,457.9052528000029,Go,space,0.8828644000022905,Correct,False,False
339,4.0,339,458.9043645999991,No_go,,0.0,Correct,False,False
340,4.0,340,459.9031621999966,Go,space,0.5173126999943634,Correct,False,False
341,4.0,341,460.9025365999987,No_go,,0.0,Correct,False,False
342,4.0,342,461.90117060000193,Go,space,0.450469499999599,Correct,False,False
343,4.0,343,462.9007999000023,Go,space,0.6665714999980992,Correct,False,False
344,4.0,344,463.8989247999998,No_go,,0.0,Correct,False,False
345,4.0,345,464.8987663000007,Go,space,0.3839592000003904,Correct,False,False
346,4.0,346,465.8971315000017,Go,space,0.7024842000028002,Correct,False,False
347,4.0,347,466.8967412999991,Go,space,0.6005595000024186,Correct,False,False
348,4.0,348,467.8955101999964,Go,space,0.6336032999970485,Correct,False,False
349,4.0,349,468.8952102999974,Go,space,0.5499409999974887,Correct,False,False
350,4.0,350,469.8936814999979,Go,space,0.6666058999981033,Correct,False,False
351,4.0,351,470.8932092999967,Go,space,0.7177503999992041,Correct,False,False
352,4.0,352,471.89189449999685,No_go,,0.0,Correct,False,False
353,4.0,353,472.8913959999991,Go,space,0.6994361000033678,Correct,False,False
354,4.0,354,473.88987970000017,Go,space,0.6337901999941096,Correct,False,False
355,4.0,355,474.8894481000025,Go,space,0.7164680999994744,Correct,False,False
356,4.0,356,475.8884102000011,Go,space,0.7333826000030967,Correct,False,False
357,4.0,357,476.8870229000022,Go,space,0.7337522000016179,Correct,False,False
358,4.0,358,477.8866214000009,Go,space,0.6336609999998473,Correct,False,False
359,4.0,359,478.8848900000012,Go,space,0.6835900000005495,Correct,False,False
360,4.0,360,479.8846972000029,Go,space,0.7493231999978889,Correct,False,False
361,4.0,361,480.8831341999976,No_go,,0.0,Correct,False,False
362,4.0,362,481.8831111999971,No_go,space,0.3830295000007027,Incorrect,False,True
363,4.0,363,482.8817821999983,Go,space,0.5000034999975469,Correct,False,False
364,4.0,364,483.8807254999992,Go,space,0.5498532999990857,Correct,False,False
365,4.0,365,484.880055499998,Go,space,0.5174160000024131,Correct,False,False
366,4.0,366,485.8794570999962,No_go,,0.0,Correct,False,False
367,4.0,367,486.8784216999993,Go,space,0.8325350000013714,Correct,False,False
368,4.0,368,487.8772938999973,Go,space,0.7819381000008434,Correct,False,False
369,4.0,369,488.8766381000023,Go,space,0.8827773000011803,Correct,False,False
370,4.0,370,489.8747392000005,Go,space,0.7669858000008389,Correct,False,False
371,4.0,371,490.87421590000304,Go,space,0.700681700000132,Correct,False,False
372,4.0,372,491.8732840000012,No_go,space,0.6651058999996167,Incorrect,False,True
373,4.0,373,492.8723379000003,Go,space,0.7177139999985229,Correct,False,False
374,4.0,374,493.8715136000028,No_go,,0.0,Correct,False,False
375,4.0,375,494.8704310999965,Go,space,0.7497871999948984,Correct,False,False
376,4.0,376,495.8697694000002,Go,space,0.7012296000029892,Correct,False,False
377,4.0,377,496.86854440000025,Go,space,0.8330956999998307,Correct,False,False
378,4.0,378,497.86827959999937,Go,space,0.817160699996748,Correct,False,False
379,4.0,379,498.8668951,Go,space,0.84991959999752,Correct,False,False
380,4.0,380,499.8656975999984,Go,space,0.8332032000034815,Correct,False,False
381,4.0,381,500.8649970999977,Go,space,0.866550399994594,Correct,False,False
382,4.0,382,501.8643551999994,Go,space,0.7340494000018225,Correct,False,False
383,4.0,383,502.8624525999985,Go,space,0.70102659999975,Correct,False,False
384,4.0,384,503.8615703999967,Go,space,0.5175789999993867,Correct,False,False
385,4.0,385,504.8610904000016,Go,space,0.4347505000041565,Correct,False,False
386,4.0,386,505.8605106999967,Go,space,0.4679966999974567,Correct,False,False
387,4.0,387,506.8593154999981,Go,space,0.4506083000014769,Correct,False,False
388,4.0,388,507.8583721999967,Go,space,0.4835108999977819,Correct,False,False
389,4.0,389,508.8572105999992,No_go,,0.0,Correct,False,False
390,4.0,390,509.8564725999968,Go,space,0.6665099000019836,Correct,False,False
391,4.0,391,510.8558082000018,Go,space,0.6171725999956834,Correct,False,False
392,4.0,392,511.8545613000024,No_go,,0.0,Correct,False,False
393,4.0,393,512.8533914,Go,space,0.4340768000038224,Correct,False,False
394,4.0,394,513.8526705999975,No_go,,0.0,Correct,False,False
395,4.0,395,514.8524566999986,Go,space,0.5826726999948733,Correct,False,False
396,4.0,396,515.8510534000015,Go,space,0.6505986000047415,Correct,False,False
397,4.0,397,516.850131500003,Go,space,0.5669731000016327,Correct,False,False
398,4.0,398,517.8490544000015,Go,space,0.6834327999968082,Correct,False,False
399,4.0,399,518.8484463999994,Go,space,0.9325312000000848,Correct,False,False
400,4.0,400,519.8472438999961,Go,space,0.8844520999991801,Correct,False,False
401,4.0,401,520.8464220000023,Go,space,0.966283800000383,Correct,False,False
402,4.0,402,521.8457789000022,Go,,0.0,Incorrect,True,False
403,4.0,403,522.8444973000005,Go,space,0.2679205000022193,Correct,False,False
404,4.0,404,523.8430912999975,Go,space,0.367825500004983,Correct,False,False
405,5.0,405,530.2995928000018,Go,space,0.637755499999912,Correct,False,False
406,5.0,406,531.2859889999963,Go,space,0.5002498000030755,Correct,False,False
407,5.0,407,532.2857485999994,Go,space,0.5506634999983362,Correct,False,False
408,5.0,408,533.2844747999989,Go,space,0.4666743999987375,Correct,False,False
409,5.0,409,534.2838136999999,Go,space,0.5506556999971508,Correct,False,False
410,5.0,410,535.2822251999969,Go,space,0.6015428000027896,Correct,False,False
411,5.0,411,536.2817553999994,Go,space,0.6999123999994481,Correct,False,False
412,5.0,412,537.2808089000027,Go,space,0.5325585000027786,Correct,False,False
413,5.0,413,538.2798507999978,Go,space,0.4679568999999901,Correct,False,False
414,5.0,414,539.2788128999964,Go,space,0.5505477999977302,Correct,False,False
415,5.0,415,540.2768451000011,Go,space,0.484617199996137,Correct,False,False
416,5.0,416,541.2776248000009,Go,space,0.615876500000013,Correct,False,False
417,5.0,417,542.2759369999985,Go,space,0.5843192000029376,Correct,False,False
418,5.0,418,543.2752084000022,Go,space,0.6175928000011481,Correct,False,False
419,5.0,419,544.2741884999996,Go,space,0.4680817999978899,Correct,False,False
420,5.0,420,545.2736319000032,Go,space,0.5665393999952357,Correct,False,False
421,5.0,421,546.2730815000032,Go,space,0.4831844000000274,Correct,False,False
422,5.0,422,547.271714399998,Go,space,0.5833559000020614,Correct,False,False
423,5.0,423,548.2706880999976,Go,space,0.5998291999931098,Correct,False,False
424,5.0,424,549.2696512999973,Go,space,0.5169029000026057,Correct,False,False
425,5.0,425,550.2686947999973,Go,space,0.6498928000000888,Correct,False,False
426,5.0,426,551.2679377000022,Go,space,0.7495969000010518,Correct,False,False
427,5.0,427,552.2670580999984,No_go,,0.0,Correct,False,False
428,5.0,428,553.2654312000013,Go,space,0.5677015999972355,Correct,False,False
429,5.0,429,554.265402099998,Go,space,0.616020399997069,Correct,False,False
430,5.0,430,555.2638023999971,No_go,,0.0,Correct,False,False
431,5.0,431,556.263143199998,Go,space,0.5673708999966038,Correct,False,False
432,5.0,432,557.2619813999991,Go,space,0.5997855000023264,Correct,False,False
433,5.0,433,558.2620256000009,Go,space,0.7165022000044701,Correct,False,False
434,5.0,434,559.2608637000012,Go,space,0.6493218000032357,Correct,False,False
435,5.0,435,560.2591687000022,Go,space,0.6181561999983387,Correct,False,False
436,5.0,436,561.2584407999966,Go,space,0.7659445000026608,Correct,False,False
437,5.0,437,562.2578350999975,No_go,,0.0,Correct,False,False
438,5.0,438,563.2566999999981,Go,space,0.5165696999974898,Correct,False,False
439,5.0,439,564.2557211000021,Go,space,0.666346899997734,Correct,False,False
440,5.0,440,565.2550685000024,No_go,,0.0,Correct,False,False
441,5.0,441,566.2537520999977,No_go,,0.0,Correct,False,False
442,5.0,442,567.2530131000021,Go,space,0.416975200001616,Correct,False,False
443,5.0,443,568.2519662999985,Go,space,0.683450399999856,Correct,False,False
444,5.0,444,569.2511540999985,Go,space,0.6167935000048601,Correct,False,False
445,5.0,445,570.2499269999971,Go,space,0.5007849000030546,Correct,False,False
446,5.0,446,571.2485426999992,No_go,space,0.4845642000000225,Incorrect,False,True
447,5.0,447,572.2479584999965,Go,space,0.6178782999995747,Correct,False,False
448,5.0,448,573.2469013000009,Go,space,0.6335762000016985,Correct,False,False
449,5.0,449,574.2462978999974,Go,space,0.6172735000000102,Correct,False,False
450,5.0,450,575.245660499997,Go,space,0.5001770000017132,Correct,False,False
451,5.0,451,576.2454719000016,Go,space,0.4992577000011806,Correct,False,False
452,5.0,452,577.2436971999996,Go,space,0.6168168000003789,Correct,False,False
453,5.0,453,578.242750700003,Go,space,0.5662777999968966,Correct,False,False
454,5.0,454,579.2420461000002,No_go,,0.0,Correct,False,False
455,5.0,455,580.2416987999968,Go,space,0.4669533999986015,Correct,False,False
456,5.0,456,581.2395795999983,Go,space,0.5171745000043302,Correct,False,False
457,5.0,457,582.2382655999972,No_go,,0.0,Correct,False,False
458,5.0,458,583.2378280999983,No_go,,0.0,Correct,False,False
459,5.0,459,584.2372528999986,Go,space,0.4670346999992034,Correct,False,False
460,5.0,460,585.2363263000007,Go,space,0.5834426999936113,Correct,False,False
461,5.0,461,586.2353733999989,Go,space,0.5660577000016929,Correct,False,False
462,5.0,462,587.2340569000007,Go,space,0.7669535000022734,Correct,False,False
463,5.0,463,588.2326967999979,Go,space,0.7172594000003301,Correct,False,False
464,5.0,464,589.2326715000017,Go,space,0.6830820999966818,Correct,False,False
465,5.0,465,590.231534999999,Go,space,0.4337569000053918,Correct,False,False
466,5.0,466,591.2308654000008,No_go,,0.0,Correct,False,False
467,5.0,467,592.2295167999982,Go,space,0.5001779000012903,Correct,False,False
468,5.0,468,593.2284387999971,Go,space,0.5338670999990427,Correct,False,False
469,5.0,469,594.2279904000025,Go,space,0.6007109999991371,Correct,False,False
470,5.0,470,595.2266451999967,Go,space,0.5668704999989131,Correct,False,False
471,5.0,471,596.2263070999979,Go,space,0.5332431999995606,Correct,False,False
472,5.0,472,597.2253640999988,Go,space,0.5663742999968235,Correct,False,False
473,5.0,473,598.2235910000018,Go,space,0.5020823000013479,Correct,False,False
474,5.0,474,599.2231863999987,No_go,,0.0,Correct,False,False
475,5.0,475,600.2219211999982,Go,space,0.4844277000011061,Correct,False,False
476,5.0,476,601.2216447999963,No_go,,0.0,Correct,False,False
477,5.0,477,602.2199595999991,Go,space,0.5832203999962076,Correct,False,False
478,5.0,478,603.2194412999961,No_go,,0.0,Correct,False,False
479,5.0,479,604.2184542000032,No_go,,0.0,Correct,False,False
480,5.0,480,605.2177432000026,No_go,,0.0,Correct,False,False
481,5.0,481,606.2161670999994,No_go,,0.0,Correct,False,False
482,5.0,482,607.2149470000004,Go,space,0.5171159000019543,Correct,False,False
483,5.0,483,608.2143050000013,No_go,,0.0,Correct,False,False
484,5.0,484,609.2137193000017,Go,space,0.4986085999989882,Correct,False,False
485,5.0,485,610.2120890000006,Go,space,0.5876313999979175,Correct,False,False
486,5.0,486,611.2113688999962,Go,space,0.5827627000035136,Correct,False,False
487,5.0,487,612.211043999996,Go,space,0.4829285000014351,Correct,False,False
488,5.0,488,613.2096571000002,Go,space,0.4342302000004565,Correct,False,False
489,5.0,489,614.2085844999965,Go,space,0.6497062999987975,Correct,False,False
490,5.0,490,615.206821599997,No_go,,0.0,Correct,False,False
491,5.0,491,616.2067265000005,Go,space,0.433293499998399,Correct,False,False
492,5.0,492,617.2061725000021,Go,space,0.6508525999961421,Correct,False,False
493,5.0,493,618.2051094999988,Go,space,0.583185899995442,Correct,False,False
494,5.0,494,619.2040593999991,Go,space,0.7671694000018761,Correct,False,False
495,6.0,495,631.2886501999965,Go,space,0.5883687000023201,Correct,False,False
496,6.0,496,632.2747617999994,Go,space,0.416325100006361,Correct,False,False
497,6.0,497,633.2748782999988,Go,space,0.7330704999985755,Correct,False,False
498,6.0,498,634.2732146999988,No_go,,0.0,Correct,False,False
499,6.0,499,635.2720399999962,Go,space,0.4840780000013183,Correct,False,False
500,6.0,500,636.2714867000032,No_go,,0.0,Correct,False,False
501,6.0,501,637.2705640999993,Go,space,0.5004721000004793,Correct,False,False
502,6.0,502,638.2702519000013,No_go,,0.0,Correct,False,False
503,6.0,503,639.2687846999979,Go,space,0.4991740000041318,Correct,False,False
504,6.0,504,640.2678364000021,No_go,,0.0,Correct,False,False
505,6.0,505,641.2672785000032,Go,space,0.6497974000012618,Correct,False,False
506,6.0,506,642.2665551000027,Go,space,0.5823374999963562,Correct,False,False
507,6.0,507,643.2650763999991,Go,space,0.566508399999293,Correct,False,False
508,6.0,508,644.2644540999972,No_go,,0.0,Correct,False,False
509,6.0,509,645.2634727999975,Go,space,0.6336628999997629,Correct,False,False
510,6.0,510,646.2620185999986,Go,space,0.6007348000057391,Correct,False,False
511,6.0,511,647.2609766000023,No_go,,0.0,Correct,False,False
512,6.0,512,648.2607884999961,Go,space,0.432857599997078,Correct,False,False
513,6.0,513,649.2594559999998,Go,space,0.6002844999966328,Correct,False,False
514,6.0,514,650.2586968999967,Go,space,0.5827719999942929,Correct,False,False
515,6.0,515,651.2580825999976,Go,space,0.6994577000004938,Correct,False,False
516,6.0,516,652.2565544000026,Go,space,0.5827807000023313,Correct,False,False
517,6.0,517,653.2554930999977,Go,space,0.6684587000054307,Correct,False,False
518,6.0,518,654.2553105999978,Go,space,0.6335497999971267,Correct,False,False
519,6.0,519,655.2544482000012,No_go,,0.0,Correct,False,False
520,6.0,520,656.2530901999999,Go,space,0.6665963999985252,Correct,False,False
521,6.0,521,657.2521392999988,No_go,,0.0,Correct,False,False
522,6.0,522,658.251516700002,Go,space,0.5341483999945922,Correct,False,False
523,6.0,523,659.2499634999986,Go,space,0.6670773000005283,Correct,False,False
524,6.0,524,660.2488987999968,No_go,,0.0,Correct,False,False
525,6.0,525,661.2484060999996,Go,space,0.6665723999976763,Correct,False,False
526,6.0,526,662.2476047000018,No_go,,0.0,Correct,False,False
527,6.0,527,663.2467762000015,Go,space,0.7009978999994928,Correct,False,False
528,6.0,528,664.2453949999981,Go,space,0.8007837999975891,Correct,False,False
529,6.0,529,665.245471000002,Go,space,0.5998609000016586,Correct,False,False
530,6.0,530,666.2441859000028,Go,space,0.5995711999930791,Correct,False,False
531,6.0,531,667.2425022000025,Go,space,0.6502877999955672,Correct,False,False
532,6.0,532,668.2416194999969,Go,space,0.5850187999967602,Correct,False,False
533,6.0,533,669.2403682000004,Go,space,0.5842196999947191,Correct,False,False
534,6.0,534,670.2399579999983,Go,space,0.5178123000005144,Correct,False,False
535,6.0,535,671.2385833000008,Go,space,0.5173230000000331,Correct,False,False
536,6.0,536,672.2379718000011,Go,space,0.4841277000014088,Correct,False,False
537,6.0,537,673.2371961000026,No_go,,0.0,Correct,False,False
538,6.0,538,674.2364005999989,Go,space,0.6340905000033672,Correct,False,False
539,6.0,539,675.2350893999974,Go,space,0.750007499998901,Correct,False,False
540,6.0,540,676.2348715999979,Go,space,0.5497374999977183,Correct,False,False
541,6.0,541,677.2338262999983,Go,space,0.4496463000032236,Correct,False,False
542,6.0,542,678.2320505000025,Go,space,0.568477000000712,Correct,False,False
543,6.0,543,679.2315309999976,Go,space,0.6837833000026876,Correct,False,False
544,6.0,544,680.2308435000014,Go,space,0.683107500000915,Correct,False,False
545,6.0,545,681.2296057999993,Go,space,0.7832344999987981,Correct,False,False
546,6.0,546,682.2287594000009,No_go,,0.0,Correct,False,False
547,6.0,547,683.2281093999991,Go,space,0.5497171000024537,Correct,False,False
548,6.0,548,684.2274651999978,Go,space,0.6162731000003987,Correct,False,False
549,6.0,549,685.2256684000022,Go,space,0.6338015000001178,Correct,False,False
550,6.0,550,686.2250615000012,Go,space,0.5673763000013423,Correct,False,False
551,6.0,551,687.2243069999968,Go,space,0.6995985000030487,Correct,False,False
552,6.0,552,688.223172500002,Go,space,0.6666257000033511,Correct,False,False
553,6.0,553,689.2226056,Go,space,0.6665157999959774,Correct,False,False
554,6.0,554,690.2217900999967,Go,space,0.7333836000034353,Correct,False,False
555,6.0,555,691.2205262999996,Go,space,0.799323799998092,Correct,False,False
556,6.0,556,692.2196323000026,No_go,,0.0,Correct,False,False
557,6.0,557,693.2184333999976,Go,space,0.5835924000057275,Correct,False,False
558,6.0,558,694.2180184000026,Go,space,0.8165547000025981,Correct,False,False
559,6.0,559,695.2167808000013,No_go,,0.0,Correct,False,False
560,6.0,560,696.2160943999988,Go,space,0.6502227000019047,Correct,False,False
561,6.0,561,697.2149301999962,Go,space,0.7007405000040308,Correct,False,False
562,6.0,562,698.2138851999989,Go,space,0.7502924999935203,Correct,False,False
563,6.0,563,699.2129094999982,No_go,,0.0,Correct,False,False
564,6.0,564,700.2117835999961,Go,space,0.7669826000055764,Correct,False,False
565,6.0,565,701.2111615000031,Go,space,0.7169307000003755,Correct,False,False
566,6.0,566,702.2104314000026,Go,space,0.8325803999978234,Correct,False,False
567,6.0,567,703.2095278999986,Go,space,0.6842699000044377,Correct,False,False
568,6.0,568,704.2081047999964,No_go,,0.0,Correct,False,False
569,6.0,569,705.2078779000003,Go,space,0.832356200000504,Correct,False,False
570,6.0,570,706.2067767999979,Go,space,0.8330853000006755,Correct,False,False
571,6.0,571,707.2058372999963,Go,space,0.6993550999977742,Correct,False,False
572,6.0,572,708.2051300000021,Go,space,0.767028999995091,Correct,False,False
573,6.0,573,709.2042222000018,Go,space,0.749203999999736,Correct,False,False
574,6.0,574,710.2029056000029,No_go,,0.0,Correct,False,False
575,6.0,575,711.2019943999985,Go,space,0.7665718999996898,Correct,False,False
576,6.0,576,712.201355899997,Go,space,0.7161911000002874,Correct,False,False
577,6.0,577,713.1998392000023,Go,space,0.6169952000054764,Correct,False,False
578,6.0,578,714.199721099998,No_go,,0.0,Correct,False,False
579,6.0,579,715.1977540000007,Go,space,0.6668168000032892,Correct,False,False
580,6.0,580,716.1975231999968,Go,space,0.6003127000003587,Correct,False,False
581,6.0,581,717.196239500001,Go,space,0.5837715000016033,Correct,False,False
582,6.0,582,718.195719000003,Go,space,0.5494026000014856,Correct,False,False
583,6.0,583,719.1939685999969,Go,space,0.6503007999999681,Correct,False,False
584,6.0,584,720.193551299999,Go,space,0.6165948000052595,Correct,False,False
