,block_index,trial,trial_onset(s),stimulus_type,resp_key,rt(s),correct,is_omission,is_comission
0,,0,82.18853010000021,No_go,,0.0,Correct,False,False
1,,1,84.17933699999412,Go,,0.0,Incorrect,True,False
2,,2,86.15984330000356,No_go,,0.0,Correct,False,False
3,,3,88.14315360000182,Go,space,0.541245100001106,Correct,False,False
4,,4,89.11622359999456,No_go,,0.0,Correct,False,False
5,,5,91.10729709999578,Go,space,0.5407197000022279,Correct,False,False
6,,6,92.08017489999474,Go,space,0.5344430999975884,Correct,False,False
7,,7,93.06254159999662,Go,space,0.7498944999970263,Correct,False,False
8,,8,94.04466790000151,No_go,space,0.5182362999912584,Incorrect,False,True
9,,9,95.02780299998994,Go,space,0.6667594000027748,Correct,False,False
10,,10,96.00946809999004,Go,space,0.5832741999911377,Correct,False,False
11,,11,96.99211949999152,Go,space,0.4180104999977629,Correct,False,False
12,,12,97.97471719999156,No_go,,0.0,Correct,False,False
13,,13,99.96501400000125,Go,space,0.4251925999997183,Correct,False,False
14,,14,100.93835009999748,Go,space,0.6339720000105444,Correct,False,False
15,,15,101.92097649999778,Go,space,0.5332621999987168,Correct,False,False
16,,16,102.9037529999914,Go,space,0.4168945999990683,Correct,False,False
17,,17,103.88566669999273,No_go,,0.0,Correct,False,False
18,,18,105.87483539999812,Go,space,0.3775583999959053,Correct,False,False
19,,19,106.85016249999173,Go,space,0.4167469999956665,Correct,False,False
20,,20,107.83258919999936,Go,space,0.416744899994228,Correct,False,False
21,,21,108.81452559999887,Go,space,0.4006346999958623,Correct,False,False
22,,22,109.79717069999606,Go,space,0.4014634000050137,Correct,False,False
23,,23,110.78010730000096,Go,space,0.3658416999969631,Correct,False,False
24,,24,111.76185189999524,Go,space,0.4023790000064764,Correct,False,False
25,,25,112.74479149999388,No_go,space,0.3833466999931261,Incorrect,False,True
26,,26,113.72621649999928,Go,space,0.7997740999999223,Correct,False,False
27,,27,114.70944049999524,Go,space,0.6337073000031523,Correct,False,False
28,,28,115.69165860000066,Go,space,0.466186599995126,Correct,False,False
29,,29,116.67413600000144,Go,space,0.5000645999971312,Correct,False,False
30,,30,117.6561978999962,No_go,,0.0,Correct,False,False
31,,31,119.64585869999428,Go,space,0.4252359000092838,Correct,False,False
32,,32,120.62067249999382,Go,space,0.400954400000046,Correct,False,False
33,,33,121.60239659999206,Go,space,0.5338304000033531,Correct,False,False
34,,34,122.58509189999312,No_go,space,0.4347417000099085,Incorrect,False,True
35,,35,123.56737079999584,Go,space,0.65005110000493,Correct,False,False
36,,36,124.55029859999196,Go,space,0.5163745999889215,Correct,False,False
37,,37,125.53312739999092,Go,space,0.6157989000057569,Correct,False,False
38,,38,126.51504430000205,Go,space,0.4660388000047533,Correct,False,False
39,,39,127.49695639999118,Go,space,0.4675520999880973,Correct,False,False
40,,40,128.4795879000012,Go,space,0.4505039000068791,Correct,False,False
41,,41,129.46204230000149,Go,space,0.6333401000010781,Correct,False,False
42,,42,130.44440749999194,Go,space,0.4680367999972077,Correct,False,False
43,,43,131.42776759999106,Go,space,0.4329270000016549,Correct,False,False
44,,44,132.40928089999943,Go,space,0.5659678000083659,Correct,False,False
45,1.0,45,145.4435053999914,No_go,,0.0,Correct,False,False
46,1.0,46,146.41270000000077,Go,space,0.4327336999995168,Correct,False,False
47,1.0,47,147.37813610000012,Go,space,0.4006389000132913,Correct,False,False
48,1.0,48,148.3443932999944,Go,space,0.4167478000017581,Correct,False,False
49,1.0,49,149.3103776999924,Go,space,0.3998149999970337,Correct,False,False
50,1.0,50,150.2761708999897,Go,space,0.4169747999985702,Correct,False,False
51,1.0,51,151.24165999999968,Go,space,0.3678177999972831,Correct,False,False
52,1.0,52,152.20697259998997,No_go,space,0.3688209999963874,Incorrect,False,True
53,1.0,53,153.17481640000187,Go,space,0.5653808000060963,Correct,False,False
54,1.0,54,154.13950039999327,Go,space,0.5500494000007166,Correct,False,False
55,1.0,55,155.10504680000304,No_go,,0.0,Correct,False,False
56,1.0,56,156.07083309999143,Go,space,0.416294900001958,Correct,False,False
57,1.0,57,157.03647019999335,Go,space,0.5330783999961568,Correct,False,False
58,1.0,58,158.00188489998982,Go,space,0.5164834999886807,Correct,False,False
59,1.0,59,158.96756199999072,Go,space,0.5855333999934373,Correct,False,False
60,1.0,60,159.93367329999455,Go,space,0.5169822000025306,Correct,False,False
61,1.0,61,160.8994701999909,No_go,,0.0,Correct,False,False
62,1.0,62,161.86501199999475,Go,space,0.3998681999946711,Correct,False,False
63,1.0,63,162.8307569000026,Go,space,0.5168544000043767,Correct,False,False
64,1.0,64,163.79635099999723,Go,space,0.666781500010984,Correct,False,False
65,1.0,65,164.76307790000283,No_go,,0.0,Correct,False,False
66,1.0,66,165.72807230000035,No_go,space,0.4004153999994742,Incorrect,False,True
67,1.0,67,166.69400529999984,Go,space,0.5495339000044623,Correct,False,False
68,1.0,68,167.6600902999926,Go,space,0.5827013999951305,Correct,False,False
69,1.0,69,168.62562979999348,Go,space,0.5501012000022456,Correct,False,False
70,1.0,70,169.5916406000033,Go,space,0.6161866000038572,Correct,False,False
71,1.0,71,170.55764250000357,Go,space,0.6008255999913672,Correct,False,False
72,1.0,72,171.5225053000031,No_go,,0.0,Correct,False,False
73,1.0,73,172.48840059999202,Go,space,0.633351100012078,Correct,False,False
74,1.0,74,173.45412569999462,No_go,,0.0,Correct,False,False
75,1.0,75,174.42026369999803,Go,space,0.4496980999974767,Correct,False,False
76,1.0,76,175.38549289999355,No_go,,0.0,Correct,False,False
77,1.0,77,176.35150469999644,Go,space,0.4836236999981338,Correct,False,False
78,1.0,78,177.31754550000187,Go,space,0.6162664000003133,Correct,False,False
79,1.0,79,178.28264489999856,Go,space,0.6342656000051647,Correct,False,False
80,1.0,80,179.24902499999737,Go,space,0.7331809000024805,Correct,False,False
81,1.0,81,180.21502479999617,Go,space,0.6826481000025524,Correct,False,False
82,1.0,82,181.1801378999953,Go,space,0.6999727999937022,Correct,False,False
83,1.0,83,182.1464116999996,No_go,,0.0,Correct,False,False
84,1.0,84,183.1114696000004,Go,space,0.5343257999920752,Correct,False,False
85,1.0,85,184.0773831999977,Go,space,0.5837114999885671,Correct,False,False
86,1.0,86,185.0432333999925,Go,space,0.683149600008619,Correct,False,False
87,1.0,87,186.0089627999987,Go,space,0.70011269999668,Correct,False,False
88,1.0,88,186.97478330000013,No_go,,0.0,Correct,False,False
89,1.0,89,187.9415552999999,Go,space,0.4161716000089654,Correct,False,False
90,1.0,90,188.90654409999843,Go,space,0.5163239999965299,Correct,False,False
91,1.0,91,189.8718993999937,No_go,,0.0,Correct,False,False
92,1.0,92,190.83825950000028,Go,space,0.4177650000056019,Correct,False,False
93,1.0,93,191.8032710999978,Go,space,0.5172415999986697,Correct,False,False
94,1.0,94,192.76912810000067,No_go,space,0.5669352999975672,Incorrect,False,True
95,1.0,95,193.73493789999335,No_go,,0.0,Correct,False,False
96,1.0,96,194.7010086999944,No_go,,0.0,Correct,False,False
97,1.0,97,195.66781430000265,Go,space,0.5328946999943582,Correct,False,False
98,1.0,98,196.63220849999925,Go,space,0.6504705999977887,Correct,False,False
99,1.0,99,197.59846300000208,Go,space,0.7494860000006156,Correct,False,False
100,1.0,100,198.56437349999032,Go,space,0.8174029999936465,Correct,False,False
101,1.0,101,199.52969139999183,Go,space,0.8661757000081707,Correct,False,False
102,1.0,102,200.4965739000036,Go,space,0.8654249000101117,Correct,False,False
103,1.0,103,201.46187659999123,Go,space,0.8661862000008114,Correct,False,False
104,1.0,104,202.42832069999716,No_go,,0.0,Correct,False,False
105,1.0,105,203.39270349999424,Go,space,0.5999654999905033,Correct,False,False
106,1.0,106,204.3581217000028,No_go,,0.0,Correct,False,False
107,1.0,107,205.32450999999128,Go,space,0.4015905999985989,Correct,False,False
108,1.0,108,206.2904320999951,Go,space,0.8997044999996433,Correct,False,False
109,1.0,109,207.2563075999933,Go,space,0.6827422999922419,Correct,False,False
110,1.0,110,208.22174690000247,Go,space,0.6835220000066329,Correct,False,False
111,1.0,111,209.18750810000347,No_go,,0.0,Correct,False,False
112,1.0,112,210.1532479000016,Go,space,0.4169824999989941,Correct,False,False
113,1.0,113,211.11960920000277,Go,space,0.5337454000109574,Correct,False,False
114,1.0,114,212.0848081000004,Go,space,0.599998499994399,Correct,False,False
115,1.0,115,213.051180399998,Go,space,0.6672806999995373,Correct,False,False
116,1.0,116,214.01654759999656,Go,space,0.6332371000025887,Correct,False,False
117,1.0,117,214.98202879999008,Go,space,0.6513575999997556,Correct,False,False
118,1.0,118,215.9475506000017,Go,space,0.6168725000025006,Correct,False,False
119,1.0,119,216.914463299996,Go,space,0.6487777000002097,Correct,False,False
120,1.0,120,217.8793841000006,Go,space,0.6847579000022961,Correct,False,False
121,1.0,121,218.8457711999945,Go,space,0.6995965000096476,Correct,False,False
122,1.0,122,219.81098989999737,Go,space,0.6335012000054121,Correct,False,False
123,1.0,123,220.77722209999047,Go,space,0.6996917999931611,Correct,False,False
124,1.0,124,221.7438088999916,Go,space,0.6822826999996323,Correct,False,False
125,1.0,125,222.70851820000095,Go,space,0.7166369000042323,Correct,False,False
126,1.0,126,223.6740869999921,Go,space,0.7674841999978526,Correct,False,False
127,1.0,127,224.6405964000005,Go,space,0.7498068999993848,Correct,False,False
128,1.0,128,225.6064183999988,Go,space,0.7501134000049205,Correct,False,False
129,1.0,129,226.57138609999677,Go,space,0.7006521000002977,Correct,False,False
130,1.0,130,227.5371038000012,Go,space,0.6336003999895183,Correct,False,False
131,1.0,131,228.50374439999,Go,space,0.5659051999973599,Correct,False,False
132,1.0,132,229.46904429999995,Go,space,0.6177503000071738,Correct,False,False
133,1.0,133,230.43421559999115,Go,space,0.6683298999996623,Correct,False,False
134,1.0,134,231.40085499999984,Go,space,0.7327656999987084,Correct,False,False
135,2.0,135,254.3964105999912,Go,space,0.6975436999928206,Correct,False,False
136,2.0,136,255.36109520000173,Go,space,0.6833906000101706,Correct,False,False
137,2.0,137,256.3273393999989,Go,space,0.7164467999973567,Correct,False,False
138,2.0,138,257.2925350000005,Go,space,0.6506616999977268,Correct,False,False
139,2.0,139,258.25891350000165,No_go,,0.0,Correct,False,False
140,2.0,140,259.22423290000006,Go,space,0.4332429999922169,Correct,False,False
141,2.0,141,260.1897479000036,No_go,,0.0,Correct,False,False
142,2.0,142,261.1559405000007,Go,space,0.3496473999985028,Correct,False,False
143,2.0,143,262.1217961999937,No_go,space,0.4156352999998489,Incorrect,False,True
144,2.0,144,263.0862395000004,Go,space,0.7342183000000659,Correct,False,False
145,2.0,145,264.05264870000246,Go,space,0.6502468999970006,Correct,False,False
146,2.0,146,265.0201833000028,Go,space,0.6820426999911433,Correct,False,False
147,2.0,147,265.98407659999793,Go,space,0.6506941999978153,Correct,False,False
148,2.0,148,266.95021799999813,Go,space,0.6352451000129804,Correct,False,False
149,2.0,149,267.91658059999463,Go,space,0.6336873999971431,Correct,False,False
150,2.0,150,268.8819839999924,No_go,,0.0,Correct,False,False
151,2.0,151,269.84801210000296,Go,space,0.4664869000116596,Correct,False,False
152,2.0,152,270.81410940000205,Go,space,0.5500226999865845,Correct,False,False
153,2.0,153,271.7787847,Go,space,0.6166992000071332,Correct,False,False
154,2.0,154,272.7441442999989,Go,space,0.7994292000075802,Correct,False,False
155,2.0,155,273.7100539999956,Go,space,0.6673522999917623,Correct,False,False
156,2.0,156,274.67714010000054,Go,space,0.5684002000052715,Correct,False,False
157,2.0,157,275.6421960000007,No_go,,0.0,Correct,False,False
158,2.0,158,276.60779999999795,Go,space,0.3506464999954914,Correct,False,False
159,2.0,159,277.5739934000012,No_go,,0.0,Correct,False,False
160,2.0,160,278.53991490000044,Go,space,0.4497143999906257,Correct,False,False
161,2.0,161,279.5052056999993,No_go,,0.0,Correct,False,False
162,2.0,162,280.4708246999944,Go,space,0.4011913999856915,Correct,False,False
163,2.0,163,281.4366088999959,Go,space,0.4838097999891033,Correct,False,False
164,2.0,164,282.40267559999484,Go,space,0.617006800006493,Correct,False,False
165,2.0,165,283.36813119999715,Go,space,0.5508663000073284,Correct,False,False
166,2.0,166,284.33379089999653,Go,space,0.6002687000000151,Correct,False,False
167,2.0,167,285.3001695999992,Go,space,0.6979334999923594,Correct,False,False
168,2.0,168,286.2652443999977,Go,space,0.7009806999994908,Correct,False,False
169,2.0,169,287.2316146999947,Go,space,0.6664124000089942,Correct,False,False
170,2.0,170,288.1976786000014,Go,space,0.665801700000884,Correct,False,False
171,2.0,171,289.1629818999936,Go,space,0.5682221000024583,Correct,False,False
172,2.0,172,290.1282726999925,Go,space,0.5337792999926023,Correct,False,False
173,2.0,173,291.0951400999911,Go,space,0.6500183000025572,Correct,False,False
174,2.0,174,292.06043109999155,Go,space,0.6495540000032634,Correct,False,False
175,2.0,175,293.02630499999213,No_go,,0.0,Correct,False,False
176,2.0,176,293.9915703000006,Go,space,0.3836620999936713,Correct,False,False
177,2.0,177,294.9579856999917,Go,space,0.5162184000073466,Correct,False,False
178,2.0,178,295.9230633999978,Go,space,0.550708000009763,Correct,False,False
179,2.0,179,296.8894927999936,Go,space,0.4839405000093393,Correct,False,False
180,2.0,180,297.8543195999955,Go,space,0.4503966000047512,Correct,False,False
181,2.0,181,298.82027959999687,Go,space,0.4505867999978363,Correct,False,False
182,2.0,182,299.78585659999226,Go,space,0.6341202999901725,Correct,False,False
183,2.0,183,300.7514467000001,Go,space,0.6338849000021582,Correct,False,False
184,2.0,184,301.71770039999683,Go,space,0.6006572999904165,Correct,False,False
185,2.0,185,302.6837144000019,No_go,,0.0,Correct,False,False
186,2.0,186,303.6489943999913,Go,space,0.2847674999939045,Correct,False,False
187,2.0,187,304.6148197000002,Go,space,0.5676921999984188,Correct,False,False
188,2.0,188,305.58041499998944,Go,space,0.6343181999982335,Correct,False,False
189,2.0,189,306.5466613000026,Go,space,0.5005143000016687,Correct,False,False
190,2.0,190,307.5123399000004,No_go,space,0.4672156000015093,Incorrect,False,True
191,2.0,191,308.47815309998987,No_go,space,0.4339289000054123,Incorrect,False,True
192,2.0,192,309.4442338999943,No_go,,0.0,Correct,False,False
193,2.0,193,310.4095573999948,No_go,,0.0,Correct,False,False
194,2.0,194,311.375274799997,Go,space,0.6513245999958599,Correct,False,False
195,2.0,195,312.3414557999931,Go,space,0.6670188999996753,Correct,False,False
196,2.0,196,313.30691669999214,Go,space,0.8530196000065189,Correct,False,False
197,2.0,197,314.2730485999928,Go,,0.0,Incorrect,True,False
198,2.0,198,315.23905289999675,Go,space,0.2997381000022869,Correct,False,False
199,2.0,199,316.20423380000284,Go,space,0.3996476000029361,Correct,False,False
200,2.0,200,317.1698631000036,Go,space,0.6167006000032416,Correct,False,False
201,2.0,201,318.13544009999896,No_go,,0.0,Correct,False,False
202,2.0,202,319.1013729999977,Go,space,0.3336815000075148,Correct,False,False
203,2.0,203,320.0671900000016,Go,space,0.33390720000898,Correct,False,False
204,2.0,204,321.0331620999932,Go,space,0.6833519999927375,Correct,False,False
205,2.0,205,321.99855069999467,Go,,0.0,Incorrect,True,False
206,2.0,206,322.9650668999966,Go,space,0.3173099999985425,Correct,False,False
207,2.0,207,323.9308821000013,Go,space,0.3835766999982297,Correct,False,False
208,2.0,208,324.89595700000064,No_go,space,0.3680151999869849,Incorrect,False,True
209,2.0,209,325.8618612999999,Go,space,0.5839531999954488,Correct,False,False
210,2.0,210,326.8271030999895,No_go,,0.0,Correct,False,False
211,2.0,211,327.79357919999165,No_go,,0.0,Correct,False,False
212,2.0,212,328.75831829999515,Go,space,0.5197302000015043,Correct,False,False
213,2.0,213,329.7251863999991,Go,space,0.6664185999979964,Correct,False,False
214,2.0,214,330.6903561999934,Go,space,0.6504576999868732,Correct,False,False
215,2.0,215,331.6563307999895,Go,space,0.8828994999930728,Correct,False,False
216,2.0,216,332.62226229999214,Go,space,0.8158399000094505,Correct,False,False
217,2.0,217,333.5881106000015,Go,space,0.7829418999899644,Correct,False,False
218,2.0,218,334.55369190000056,Go,space,0.7674232999997912,Correct,False,False
219,2.0,219,335.519776599991,Go,space,0.6664339999988442,Correct,False,False
220,2.0,220,336.48522299999604,Go,space,0.6836673999932827,Correct,False,False
221,2.0,221,337.45096259999264,Go,space,0.7004523999930825,Correct,False,False
222,2.0,222,338.4163902,No_go,,0.0,Correct,False,False
223,2.0,223,339.38245160000224,Go,space,0.5504924999986542,Correct,False,False
224,2.0,224,340.3485161999997,Go,space,0.6832894999970449,Correct,False,False
225,3.0,225,357.4828156000003,Go,space,0.5318139000009978,Correct,False,False
226,3.0,226,358.4477995999914,Go,space,0.4004563999915262,Correct,False,False
227,3.0,227,359.41466019999643,No_go,space,0.3997885999997379,Incorrect,False,True
228,3.0,228,360.379325899994,Go,space,0.4172779000073205,Correct,False,False
229,3.0,229,361.3458614999981,Go,space,0.4830268000077922,Correct,False,False
230,3.0,230,362.3109808000008,No_go,,0.0,Correct,False,False
231,3.0,231,363.2776505999937,Go,space,0.3494143999996595,Correct,False,False
232,3.0,232,364.2426281999942,No_go,space,0.4003649999940535,Incorrect,False,True
233,3.0,233,365.2073460999964,Go,space,0.6344234000134747,Correct,False,False
234,3.0,234,366.1746331999893,Go,space,0.5667818999936571,Correct,False,False
235,3.0,235,367.1401706000033,Go,space,0.5999397999985376,Correct,False,False
236,3.0,236,368.1063512999972,Go,space,0.5658643000060692,Correct,False,False
237,3.0,237,369.07165669999085,Go,space,0.5839254999882542,Correct,False,False
238,3.0,238,370.03696089998994,Go,space,0.5169782000011764,Correct,False,False
239,3.0,239,371.00201349999406,Go,space,0.6844252000009874,Correct,False,False
240,3.0,240,371.968601200002,Go,space,0.5841841000074055,Correct,False,False
241,3.0,241,372.9347132999974,Go,space,0.6002729000028921,Correct,False,False
242,3.0,242,373.8999679999979,Go,space,0.5837505999952555,Correct,False,False
243,3.0,243,374.86603379999,No_go,,0.0,Correct,False,False
244,3.0,244,375.8316392999986,Go,space,0.3671628000010969,Correct,False,False
245,3.0,245,376.79810729999735,Go,space,0.5666946999990614,Correct,False,False
246,3.0,246,377.76370369999495,No_go,,0.0,Correct,False,False
247,3.0,247,378.72976349999954,Go,space,0.3999197999946773,Correct,False,False
248,3.0,248,379.6952665999997,Go,space,0.5838287999940803,Correct,False,False
249,3.0,249,380.6606586999988,Go,space,0.6999715999991167,Correct,False,False
250,3.0,250,381.62651869999536,Go,space,0.7179021000047214,Correct,False,False
251,3.0,251,382.59233810000296,Go,space,0.8335381999931997,Correct,False,False
252,3.0,252,383.55869989999337,No_go,,0.0,Correct,False,False
253,3.0,253,384.5244784999959,Go,space,0.433380100002978,Correct,False,False
254,3.0,254,385.4896558999899,Go,space,0.5997680999862496,Correct,False,False
255,3.0,255,386.45604429999366,Go,,0.0,Incorrect,True,False
256,3.0,256,387.42102959999465,Go,space,0.2347244999982649,Correct,False,False
257,3.0,257,388.3863297999924,No_go,,0.0,Correct,False,False
258,3.0,258,389.35287329999846,No_go,space,0.3507154999970225,Incorrect,False,True
259,3.0,259,390.31805780000286,Go,space,0.6666165000060573,Correct,False,False
260,3.0,260,391.2851240000018,Go,space,0.5672497999912594,Correct,False,False
261,3.0,261,392.2508136999968,Go,,0.0,Incorrect,True,False
262,3.0,262,393.2157675999915,Go,space,0.1669910000055097,Correct,False,False
263,3.0,263,394.1823107999953,No_go,,0.0,Correct,False,False
264,3.0,264,395.1474258999952,Go,space,0.4164640999952098,Correct,False,False
265,3.0,265,396.1134770999925,No_go,,0.0,Correct,False,False
266,3.0,266,397.07826509999,Go,space,0.3004648000060115,Correct,False,False
267,3.0,267,398.044630999997,Go,space,0.5500612999894656,Correct,False,False
268,3.0,268,399.0105789999943,Go,space,0.6668372999993153,Correct,False,False
269,3.0,269,399.9762140999956,Go,space,0.716402999998536,Correct,False,False
270,3.0,270,400.94181409999146,Go,space,0.6003688999917358,Correct,False,False
271,3.0,271,401.9083130999934,Go,space,0.6161515999992844,Correct,False,False
272,3.0,272,402.8736009999993,Go,space,0.700119299988728,Correct,False,False
273,3.0,273,403.8393352999992,No_go,,0.0,Correct,False,False
274,3.0,274,404.8044441999955,Go,space,0.4175541000004159,Correct,False,False
275,3.0,275,405.7707276000001,Go,space,0.5173145000007935,Correct,False,False
276,3.0,276,406.73597470000095,No_go,,0.0,Correct,False,False
277,3.0,277,407.7026265000022,Go,space,0.2828677000070456,Correct,False,False
278,3.0,278,408.667720700003,Go,space,0.4348534000018844,Correct,False,False
279,3.0,279,409.6336309000035,Go,space,0.4008422000042628,Correct,False,False
280,3.0,280,410.5996045999928,Go,space,0.4671705000073416,Correct,False,False
281,3.0,281,411.5650106999965,Go,space,0.5508890000055544,Correct,False,False
282,3.0,282,412.5315816999937,Go,space,0.6169992000068305,Correct,False,False
283,3.0,283,413.49621189999743,No_go,,0.0,Correct,False,False
284,3.0,284,414.4626860999997,Go,space,0.4336081000074046,Correct,False,False
285,3.0,285,415.428021899992,Go,space,0.6996851000003517,Correct,False,False
286,3.0,286,416.39486220000254,Go,space,0.749336900000344,Correct,False,False
287,3.0,287,417.3596877999953,Go,space,0.7826865999959409,Correct,False,False
288,3.0,288,418.325525399996,Go,space,0.7837171999999555,Correct,False,False
289,3.0,289,419.2916693000007,Go,space,0.8159334999945713,Correct,False,False
290,3.0,290,420.2565452999988,Go,space,0.8666857000062009,Correct,False,False
291,3.0,291,421.22331410000334,Go,,0.0,Incorrect,True,False
292,3.0,292,422.18818420000025,Go,space,0.2507573000038974,Correct,False,False
293,3.0,293,423.15357609999774,Go,space,0.4681458999984897,Correct,False,False
294,3.0,294,424.12040010000055,No_go,space,0.4331900000106543,Incorrect,False,True
295,3.0,295,425.0852758999972,No_go,,0.0,Correct,False,False
296,3.0,296,426.0523373000033,Go,space,0.4000248999946052,Correct,False,False
297,3.0,297,427.0176313999982,Go,space,0.5348535999946762,Correct,False,False
298,3.0,298,427.9828100000013,Go,space,0.7172672000015154,Correct,False,False
299,3.0,299,428.9496911000024,Go,space,0.7168833000032464,Correct,False,False
300,3.0,300,429.91485960000136,Go,space,0.6832660000072792,Correct,False,False
301,3.0,301,430.8811392999924,No_go,,0.0,Correct,False,False
302,3.0,302,431.8465102999908,Go,space,0.3515447999961907,Correct,False,False
303,3.0,303,432.81258369999705,No_go,,0.0,Correct,False,False
304,3.0,304,433.77785679999215,Go,space,0.2838899000053061,Correct,False,False
305,3.0,305,434.7438892999926,Go,space,0.5002633999974933,Correct,False,False
306,3.0,306,435.70962949999375,Go,space,0.7171286000084365,Correct,False,False
307,3.0,307,436.6755847000022,Go,space,0.883884399998351,Correct,False,False
308,3.0,308,437.64091799999005,Go,space,0.9165030000003752,Correct,False,False
309,3.0,309,438.6070235999941,No_go,,0.0,Correct,False,False
310,3.0,310,439.5755243000021,Go,space,0.498691200002213,Correct,False,False
311,3.0,311,440.538207199992,Go,space,0.6008021000016015,Correct,False,False
312,3.0,312,441.5046538000024,Go,space,0.6330151000001933,Correct,False,False
313,3.0,313,442.470419899997,Go,,0.0,Incorrect,True,False
314,3.0,314,443.4361299000011,Go,space,0.233919699996477,Correct,False,False
315,4.0,315,469.7227081000019,No_go,,0.0,Correct,False,False
316,4.0,316,470.6760675999976,Go,space,0.3673834999935934,Correct,False,False
317,4.0,317,471.64244589999726,Go,space,0.3847693999996409,Correct,False,False
318,4.0,318,472.6087009999901,Go,space,0.5492193999962183,Correct,False,False
319,4.0,319,473.5745427999937,Go,space,0.4156554000073811,Correct,False,False
320,4.0,320,474.5395394999941,Go,space,0.3837832999997772,Correct,False,False
321,4.0,321,475.5060950999905,Go,space,0.3001127000025008,Correct,False,False
322,4.0,322,476.4723754000006,Go,space,0.4498319000122137,Correct,False,False
323,4.0,323,477.43699119999656,Go,space,0.4167808000056539,Correct,False,False
324,4.0,324,478.4026673999906,Go,space,0.3511742000118829,Correct,False,False
325,4.0,325,479.368258100003,No_go,,0.0,Correct,False,False
326,4.0,326,480.3349621999951,Go,space,0.3826637000020128,Correct,False,False
327,4.0,327,481.30029600000125,No_go,,0.0,Correct,False,False
328,4.0,328,482.26555139999255,Go,space,0.4336531000008108,Correct,False,False
329,4.0,329,483.2318604000029,Go,space,0.5837547999981325,Correct,False,False
330,4.0,330,484.197130200002,No_go,,0.0,Correct,False,False
331,4.0,331,485.1630485999922,Go,space,0.3010951000032946,Correct,False,False
332,4.0,332,486.1296053999977,Go,space,0.4990191999968374,Correct,False,False
333,4.0,333,487.09499399999913,Go,space,0.5005584000027739,Correct,False,False
334,4.0,334,488.0603534999973,Go,space,0.667445700004464,Correct,False,False
335,4.0,335,489.02620860000025,Go,space,0.6500518999964697,Correct,False,False
336,4.0,336,489.9920845000015,Go,space,0.7834667999995872,Correct,False,False
337,4.0,337,490.9574174000009,Go,space,0.7860119999968447,Correct,False,False
338,4.0,338,491.9233275000006,Go,space,0.8514944999915315,Correct,False,False
339,4.0,339,492.8897118000023,Go,space,0.849728100001812,Correct,False,False
340,4.0,340,493.8552576999937,No_go,,0.0,Correct,False,False
341,4.0,341,494.8207862999989,No_go,space,0.3020014999929117,Incorrect,False,True
342,4.0,342,495.78660949999176,Go,space,0.58441579999635,Correct,False,False
343,4.0,343,496.75281749998976,Go,space,0.6493239999981597,Correct,False,False
344,4.0,344,497.7179625999997,Go,space,0.5668416999978945,Correct,False,False
345,4.0,345,498.68358219999936,Go,space,0.5843067999958294,Correct,False,False
346,4.0,346,499.6498496999993,Go,space,0.5342107999895234,Correct,False,False
347,4.0,347,500.6165100999933,No_go,space,0.8992852999945171,Incorrect,False,True
348,4.0,348,501.5822247999895,Go,,0.0,Incorrect,True,False
349,4.0,349,502.5476771999965,Go,space,0.4167364000022644,Correct,False,False
350,4.0,350,503.5136880999926,Go,space,0.7159462999989046,Correct,False,False
351,4.0,351,504.47868339999695,No_go,,0.0,Correct,False,False
352,4.0,352,505.4451700999925,Go,space,0.4999482999992324,Correct,False,False
353,4.0,353,506.4101682999899,Go,space,0.466019800005597,Correct,False,False
354,4.0,354,507.3760719999991,No_go,,0.0,Correct,False,False
355,4.0,355,508.3419922999892,Go,space,0.2506978000019444,Correct,False,False
356,4.0,356,509.30754650000017,Go,space,0.4501684999995632,Correct,False,False
357,4.0,357,510.2727314999938,Go,space,0.4170360999996774,Correct,False,False
358,4.0,358,511.2383574999985,Go,space,0.5179497000062838,Correct,False,False
359,4.0,359,512.2050757999968,Go,space,0.4660307000012835,Correct,False,False
360,4.0,360,513.170781599998,Go,space,0.3998607999965315,Correct,False,False
361,4.0,361,514.1355688999902,Go,space,0.7007814999960829,Correct,False,False
362,4.0,362,515.1017595000012,Go,space,0.6167132999980822,Correct,False,False
363,4.0,363,516.0675021999923,Go,space,0.6172851000010269,Correct,False,False
364,4.0,364,517.0338666000025,No_go,space,0.4164006000064546,Incorrect,False,True
365,4.0,365,517.9993264999939,Go,space,0.4338438999984646,Correct,False,False
366,4.0,366,518.9650772000023,No_go,,0.0,Correct,False,False
367,4.0,367,519.930861899993,Go,space,0.433416700005182,Correct,False,False
368,4.0,368,520.8959462999919,Go,space,0.5350523000088288,Correct,False,False
369,4.0,369,521.8627661999926,Go,space,0.6012457000033464,Correct,False,False
370,4.0,370,522.8286351999996,Go,space,0.649578600001405,Correct,False,False
371,4.0,371,523.7944561999902,Go,space,0.5504223000025377,Correct,False,False
372,4.0,372,524.7597245999932,Go,space,0.5666756999999052,Correct,False,False
373,4.0,373,525.7253761000029,Go,space,0.5676341000071261,Correct,False,False
374,4.0,374,526.6916443999944,Go,space,0.6336067000083858,Correct,False,False
375,4.0,375,527.657426699996,Go,space,0.6336921999900369,Correct,False,False
376,4.0,376,528.6223650000029,Go,space,0.6673724000138463,Correct,False,False
377,4.0,377,529.5890807999967,Go,space,0.6826254999905359,Correct,False,False
378,4.0,378,530.5550145000016,Go,space,0.6662206000037258,Correct,False,False
379,4.0,379,531.5200618999952,No_go,,0.0,Correct,False,False
380,4.0,380,532.48594649999,Go,space,0.3337702999997418,Correct,False,False
381,4.0,381,533.4517171999905,No_go,space,0.3341421999939484,Incorrect,False,True
382,4.0,382,534.4173588999984,Go,space,0.4171803999925032,Correct,False,False
383,4.0,383,535.3832631999976,Go,space,0.6498547999945004,Correct,False,False
384,4.0,384,536.349252400003,Go,space,0.6157725000084611,Correct,False,False
385,4.0,385,537.3143445000023,Go,space,0.5180133999965619,Correct,False,False
386,4.0,386,538.2806523000036,No_go,,0.0,Correct,False,False
387,4.0,387,539.2453580000001,Go,space,0.383682100000442,Correct,False,False
388,4.0,388,540.2122392000019,Go,space,0.5491631000040798,Correct,False,False
389,4.0,389,541.1771958000027,Go,space,0.7165692999988096,Correct,False,False
390,4.0,390,542.1432878999913,Go,space,0.6499228000029689,Correct,False,False
391,4.0,391,543.1089474999899,Go,space,0.5502187999954913,Correct,False,False
392,4.0,392,544.0743782999925,Go,space,0.5003820999991149,Correct,False,False
393,4.0,393,545.0408352999948,Go,space,0.4995218999974895,Correct,False,False
394,4.0,394,546.0058895999973,No_go,,0.0,Correct,False,False
395,4.0,395,546.9718236999906,No_go,space,0.4512638000014703,Incorrect,False,True
396,4.0,396,547.9374106000032,Go,space,0.6668642000004184,Correct,False,False
397,4.0,397,548.9040590999939,Go,space,0.6673426999914227,Correct,False,False
398,4.0,398,549.8690167000022,Go,space,0.6006921999942278,Correct,False,False
399,4.0,399,550.8350607000029,Go,space,0.4832861000031698,Correct,False,False
400,4.0,400,551.8005137,No_go,,0.0,Correct,False,False
401,4.0,401,552.7664347999962,Go,space,0.5172628999862354,Correct,False,False
402,4.0,402,553.7321148999908,Go,space,0.4344343999982811,Correct,False,False
403,4.0,403,554.6976087999938,No_go,,0.0,Correct,False,False
404,4.0,404,555.6643139999942,Go,space,0.3674071000132244,Correct,False,False
405,5.0,405,576.6354048999929,No_go,space,0.4749807000043802,Incorrect,False,True
406,5.0,406,577.5940025000018,Go,space,0.5831640999967931,Correct,False,False
407,5.0,407,578.558769299998,Go,space,0.4674857999925734,Correct,False,False
408,5.0,408,579.5251483000029,Go,space,0.4167187999992165,Correct,False,False
409,5.0,409,580.4911875999969,No_go,,0.0,Correct,False,False
410,5.0,410,581.4561833999906,Go,space,0.5006894999969518,Correct,False,False
411,5.0,411,582.4228060000023,Go,space,0.4835581999941496,Correct,False,False
412,5.0,412,583.3883571999904,Go,space,0.5172865999920759,Correct,False,False
413,5.0,413,584.3545639999938,Go,space,0.5330366999987746,Correct,False,False
414,5.0,414,585.3188009000005,Go,space,0.6005099000030896,Correct,False,False
415,5.0,415,586.2854006999987,Go,space,0.6498938000004273,Correct,False,False
416,5.0,416,587.2502634999983,No_go,,0.0,Correct,False,False
417,5.0,417,588.2162881999975,Go,space,0.3685307999985525,Correct,False,False
418,5.0,418,589.1834343999944,Go,space,0.4344869000051403,Correct,False,False
419,5.0,419,590.1491509999905,Go,space,0.5171149999951012,Correct,False,False
420,5.0,420,591.1145584999904,No_go,,0.0,Correct,False,False
421,5.0,421,592.0971522999898,Go,space,0.3343289000040386,Correct,False,False
422,5.0,422,593.0628800999984,Go,space,0.5007467999967048,Correct,False,False
423,5.0,423,594.02997589999,Go,space,0.4817188999877544,Correct,False,False
424,5.0,424,594.9939906999934,No_go,,0.0,Correct,False,False
425,5.0,425,595.9602691000036,Go,space,0.432119800010696,Correct,False,False
426,5.0,426,596.9254335000005,Go,space,0.6000133000052301,Correct,False,False
427,5.0,427,597.8916572000016,Go,space,0.6174148999998579,Correct,False,False
428,5.0,428,598.8563595000014,No_go,,0.0,Correct,False,False
429,5.0,429,599.8229369000037,No_go,space,0.2999220000056084,Incorrect,False,True
430,5.0,430,600.7883951999975,Go,space,0.6497784999955911,Correct,False,False
431,5.0,431,601.7538235999964,Go,space,0.583932299996377,Correct,False,False
432,5.0,432,602.7205202999903,Go,space,0.6331447999982629,Correct,False,False
433,5.0,433,603.6860990999994,Go,space,0.7179846000071848,Correct,False,False
434,5.0,434,604.6521991999907,Go,space,0.7170943999954034,Correct,False,False
435,5.0,435,605.6169400999934,Go,space,0.6002196000044933,Correct,False,False
436,5.0,436,606.5841902999964,Go,space,0.4992549000016879,Correct,False,False
437,5.0,437,607.5495076999941,Go,space,0.5004818999877898,Correct,False,False
438,5.0,438,608.5157597999932,Go,space,0.4662990999931935,Correct,False,False
439,5.0,439,609.4806227999943,Go,space,0.6986446999944746,Correct,False,False
440,5.0,440,610.4455381000007,No_go,,0.0,Correct,False,False
441,5.0,441,611.4118368999916,Go,space,0.4000498999957926,Correct,False,False
442,5.0,442,612.3769748999912,Go,space,0.6505763000022853,Correct,False,False
443,5.0,443,613.34262879999,No_go,,0.0,Correct,False,False
444,5.0,444,614.3089347999921,Go,space,0.3845279999950435,Correct,False,False
445,5.0,445,615.2745903000032,Go,space,0.5504841999936616,Correct,False,False
446,5.0,446,616.2406644000002,Go,space,0.6169835000036983,Correct,False,False
447,5.0,447,617.2064660999895,Go,space,0.6485041999985697,Correct,False,False
448,5.0,448,618.1721361999953,Go,space,0.7332743000006303,Correct,False,False
449,5.0,449,619.1376518000034,No_go,,0.0,Correct,False,False
450,5.0,450,620.1038883000001,No_go,space,0.3162539000040851,Incorrect,False,True
451,5.0,451,621.069124799993,Go,space,0.4169474999944214,Correct,False,False
452,5.0,452,622.0349872999941,Go,space,0.6000397000025259,Correct,False,False
453,5.0,453,623.0006577000022,Go,space,0.7020167000009678,Correct,False,False
454,5.0,454,623.9662959999987,Go,space,0.7172894000104861,Correct,False,False
455,5.0,455,624.9322688999964,Go,space,0.733535799998208,Correct,False,False
456,5.0,456,625.8984893000015,Go,space,0.933533499992336,Correct,False,False
457,5.0,457,626.8642144999903,Go,,0.0,Incorrect,True,False
458,5.0,458,627.8295980999974,No_go,space,0.1504264999966835,Incorrect,False,True
459,5.0,459,628.7958180999995,Go,space,0.3832784999976866,Correct,False,False
460,5.0,460,629.7616785999999,No_go,space,0.3495068999909563,Incorrect,False,True
461,5.0,461,630.727437900001,Go,space,0.400206899998011,Correct,False,False
462,5.0,462,631.6925555999915,Go,space,0.5503668999881484,Correct,False,False
463,5.0,463,632.6592139999993,No_go,,0.0,Correct,False,False
464,5.0,464,633.625125599996,Go,space,0.4158265000005485,Correct,False,False
465,5.0,465,634.589988599997,Go,space,0.4683881000091787,Correct,False,False
466,5.0,466,635.5558996999898,Go,space,0.5161047000001417,Correct,False,False
467,5.0,467,636.5205897999986,Go,space,0.4679498999903444,Correct,False,False
468,5.0,468,637.4875914000004,Go,space,0.6827054000023054,Correct,False,False
469,5.0,469,638.4534106999927,Go,space,0.5335786000068765,Correct,False,False
470,5.0,470,639.4193082999991,Go,space,0.5999700999964261,Correct,False,False
471,5.0,471,640.3848986999947,No_go,,0.0,Correct,False,False
472,5.0,472,641.3506469999993,Go,space,0.3508066000067629,Correct,False,False
473,5.0,473,642.3161974999966,Go,space,0.4174078999931225,Correct,False,False
474,5.0,474,643.2829575999931,Go,space,0.4326354000077117,Correct,False,False
475,5.0,475,644.2470537999907,Go,space,0.4685561999940546,Correct,False,False
476,5.0,476,645.2136930999986,Go,space,0.518094300001394,Correct,False,False
477,5.0,477,646.1789540000027,Go,space,0.4347009999910369,Correct,False,False
478,5.0,478,647.1450553999894,No_go,space,0.4344794000062393,Incorrect,False,True
479,5.0,479,648.1112865999894,Go,space,0.4509585999912815,Correct,False,False
480,5.0,480,649.0768575999973,No_go,space,0.3670659999916097,Incorrect,False,True
481,5.0,481,650.0427573999914,Go,space,0.5183497999969404,Correct,False,False
482,5.0,482,651.0094390000013,Go,space,0.5837507999967784,Correct,False,False
483,5.0,483,651.9739554999978,Go,space,0.6010703000065405,Correct,False,False
484,5.0,484,652.9409542999929,Go,space,0.5173464999970747,Correct,False,False
485,5.0,485,653.9055383999948,Go,space,0.6341767000121763,Correct,False,False
486,5.0,486,654.8714726000035,Go,space,0.5503746000031242,Correct,False,False
487,5.0,487,655.8372571999935,Go,space,0.4205368999973871,Correct,False,False
488,5.0,488,656.8029287999962,No_go,,0.0,Correct,False,False
489,5.0,489,657.7689868000016,Go,space,0.3504850000026636,Correct,False,False
490,5.0,490,658.735128100001,Go,space,0.4832491999986814,Correct,False,False
491,5.0,491,659.7009488999902,Go,space,0.6005351999920094,Correct,False,False
492,5.0,492,660.6659148999897,Go,space,0.5175295000080951,Correct,False,False
493,5.0,493,661.6318001000036,Go,space,0.4667900999920675,Correct,False,False
494,5.0,494,662.5976586999896,Go,space,0.4503161000029649,Correct,False,False
495,6.0,495,694.5143632999971,Go,space,0.5529834999906598,Correct,False,False
496,6.0,496,695.4831193999999,Go,space,0.317845199999283,Correct,False,False
497,6.0,497,696.4487112999923,Go,space,0.2514177999983076,Correct,False,False
498,6.0,498,697.4144769999984,Go,space,0.3170718999899691,Correct,False,False
499,6.0,499,698.3809159999946,Go,space,0.3170592999958899,Correct,False,False
500,6.0,500,699.345922499997,Go,space,0.3205225999990944,Correct,False,False
501,6.0,501,700.3119959000032,Go,space,0.3857425000023795,Correct,False,False
502,6.0,502,701.2783217999968,No_go,space,0.3667073999968124,Incorrect,False,True
503,6.0,503,702.2433117999899,Go,space,0.3342911999934586,Correct,False,False
504,6.0,504,703.209807399995,Go,space,0.4499494000046979,Correct,False,False
505,6.0,505,704.1764336999913,Go,space,0.4335894000105327,Correct,False,False
506,6.0,506,705.1426040999941,Go,space,0.3827511999988928,Correct,False,False
507,6.0,507,706.1069294999907,No_go,space,0.400888300006045,Incorrect,False,True
508,6.0,508,707.0726227999985,Go,space,0.3349554000014905,Correct,False,False
509,6.0,509,708.0386032999959,No_go,,0.0,Correct,False,False
510,6.0,510,709.0042866000003,Go,space,0.351823000004515,Correct,False,False
511,6.0,511,709.9700793999946,No_go,,0.0,Correct,False,False
512,6.0,512,710.9360882999899,Go,space,0.4003701000037836,Correct,False,False
513,6.0,513,711.9016720999934,Go,space,0.4512183999904664,Correct,False,False
514,6.0,514,712.8672300999897,Go,space,0.5177303999953438,Correct,False,False
515,6.0,515,713.832823299992,Go,space,0.5507065999991028,Correct,False,False
516,6.0,516,714.7992583000014,Go,space,0.4004910000076052,Correct,False,False
517,6.0,517,715.764791499998,No_go,,0.0,Correct,False,False
518,6.0,518,716.7303153999965,Go,space,0.3677145000110613,Correct,False,False
519,6.0,519,717.6966408000008,Go,space,0.5846560000063619,Correct,False,False
520,6.0,520,718.6628824999934,No_go,,0.0,Correct,False,False
521,6.0,521,719.6275868999946,No_go,space,0.3507175999984611,Incorrect,False,True
522,6.0,522,720.5931448999909,No_go,,0.0,Correct,False,False
523,6.0,523,721.5598406999925,Go,space,0.4496425000106683,Correct,False,False
524,6.0,524,722.5257136,Go,space,0.4999635000131093,Correct,False,False
525,6.0,525,723.491088499999,Go,space,0.5169216000067536,Correct,False,False
526,6.0,526,724.4564306999964,Go,space,0.6025835999898845,Correct,False,False
527,6.0,527,725.4222754999937,No_go,,0.0,Correct,False,False
528,6.0,528,726.3882951999985,Go,space,0.2675013999978546,Correct,False,False
529,6.0,529,727.3535581999895,Go,space,0.5511289999994915,Correct,False,False
530,6.0,530,728.3199651999894,Go,space,0.6175866000121459,Correct,False,False
531,6.0,531,729.2848004999978,Go,space,0.5684553000028245,Correct,False,False
532,6.0,532,730.2510442999919,Go,space,0.5673623000038788,Correct,False,False
533,6.0,533,731.2170243,Go,space,0.4842880999931367,Correct,False,False
534,6.0,534,732.1830118999933,Go,space,0.5499336999928346,Correct,False,False
535,6.0,535,733.1480787000037,Go,space,0.5680574999860255,Correct,False,False
536,6.0,536,734.114648399991,No_go,,0.0,Correct,False,False
537,6.0,537,735.0803428999934,Go,space,0.4665149000065867,Correct,False,False
538,6.0,538,736.0460743000003,Go,space,0.5668690999882529,Correct,False,False
539,6.0,539,737.0117341000005,No_go,,0.0,Correct,False,False
540,6.0,540,737.9772834999894,Go,space,0.4837904000014532,Correct,False,False
541,6.0,541,738.9431755999976,Go,space,0.5849583999952301,Correct,False,False
542,6.0,542,739.9087273999903,Go,space,0.6003425000089919,Correct,False,False
543,6.0,543,740.8752969999914,Go,space,0.4503581000026315,Correct,False,False
544,6.0,544,741.840434400001,Go,space,0.4340346000099089,Correct,False,False
545,6.0,545,742.8066104000027,Go,space,0.4336370999953942,Correct,False,False
546,6.0,546,743.7718644999986,Go,space,0.450769200004288,Correct,False,False
547,6.0,547,744.7377187999955,Go,space,0.5683812000061153,Correct,False,False
548,6.0,548,745.7035030999978,No_go,,0.0,Correct,False,False
549,6.0,549,746.6689121999952,Go,space,0.4680845999973826,Correct,False,False
550,6.0,550,747.6360394999938,Go,space,0.6664368000056129,Correct,False,False
551,6.0,551,748.6011167999968,No_go,,0.0,Correct,False,False
552,6.0,552,749.5664316999901,No_go,,0.0,Correct,False,False
553,6.0,553,750.5321595999994,Go,space,0.4693239000043832,Correct,False,False
554,6.0,554,751.4983088000008,No_go,,0.0,Correct,False,False
555,6.0,555,752.4643174999946,Go,space,0.5667247000092175,Correct,False,False
556,6.0,556,753.4292893999955,No_go,,0.0,Correct,False,False
557,6.0,557,754.3957010000013,Go,space,0.666617100010626,Correct,False,False
558,6.0,558,755.3613862999919,Go,space,0.6166849000001093,Correct,False,False
559,6.0,559,756.3266601999931,Go,space,0.5669858000037493,Correct,False,False
560,6.0,560,757.2923727000016,Go,space,0.5508492000080878,Correct,False,False
561,6.0,561,758.2586497000011,Go,space,0.5335938000062015,Correct,False,False
562,6.0,562,759.2243030999962,Go,space,0.6011799999978393,Correct,False,False
563,6.0,563,760.190566099991,Go,space,0.4663796999957412,Correct,False,False
564,6.0,564,761.1554388999939,No_go,space,0.4678595000004861,Incorrect,False,True
565,6.0,565,762.1218972999923,Go,space,0.433906600010232,Correct,False,False
566,6.0,566,763.0871977999923,Go,space,0.5678765999909956,Correct,False,False
567,6.0,567,764.0531824999925,Go,space,0.4836158999969484,Correct,False,False
568,6.0,568,765.0189444999996,Go,space,0.4348084000084782,Correct,False,False
569,6.0,569,765.9851500999939,Go,space,0.4163274000020465,Correct,False,False
570,6.0,570,766.9502007999981,Go,space,0.4007659999915631,Correct,False,False
571,6.0,571,767.9160676000029,No_go,space,0.350311000001966,Incorrect,False,True
572,6.0,572,768.8819202000013,Go,space,0.3838986000046134,Correct,False,False
573,6.0,573,769.846695699991,Go,space,0.4849345999973593,Correct,False,False
574,6.0,574,770.8131522999902,Go,space,0.551570299998275,Correct,False,False
575,6.0,575,771.779471899994,Go,space,0.6013998999987962,Correct,False,False
576,6.0,576,772.7447696000017,Go,space,0.5501749999966705,Correct,False,False
577,6.0,577,773.7107105999894,Go,space,0.4840967000054661,Correct,False,False
578,6.0,578,774.6763701000018,Go,space,0.4170047000079648,Correct,False,False
579,6.0,579,775.6423385999951,Go,space,0.3338408000126946,Correct,False,False
580,6.0,580,776.6079746000032,Go,space,0.3839482000039425,Correct,False,False
581,6.0,581,777.573762,Go,space,0.4689188000047579,Correct,False,False
582,6.0,582,778.5395583999925,Go,space,0.4660646999982418,Correct,False,False
583,6.0,583,779.5052576000016,Go,space,0.367094300003373,Correct,False,False
584,6.0,584,780.4710545999988,Go,space,0.549657900002785,Correct,False,False
