,block_index,trial,trial_onset(s),stimulus_type,resp_key,rt(s),correct,is_omission,is_comission
0,,0,6.322992700152099,Go,,0.0,Incorrect,True,False
1,,1,8.332330800127238,Go,,0.0,Incorrect,True,False
2,,2,10.3468718000222,Go,space,0.2432548999786377,Correct,False,False
3,,3,11.355468299938366,Go,space,0.3832898000255227,Correct,False,False
4,,4,12.371143599972129,Go,space,0.3164917998947203,Correct,False,False
5,,5,13.386876899981871,Go,space,0.3681248999200761,Correct,False,False
6,,6,14.40291230008006,Go,space,0.2999048999045044,Correct,False,False
7,,7,15.418296799995003,No_go,space,0.3018344999291003,Incorrect,False,True
8,,8,16.434001700021327,Go,space,0.400234900182113,Correct,False,False
9,,9,17.449604300083593,Go,space,0.2835436000023037,Correct,False,False
10,,10,18.465715100057423,No_go,space,0.3840626999735832,Incorrect,False,True
11,,11,19.48127730004489,Go,,0.0,Incorrect,True,False
12,,12,21.50415090005845,No_go,,0.0,Correct,False,False
13,,13,23.51774449995719,Go,,0.0,Incorrect,True,False
14,,14,25.531368900090456,Go,space,0.2610132999252528,Correct,False,False
15,,15,26.541272199945524,Go,space,0.366680100094527,Correct,False,False
16,,16,27.55700130015612,Go,space,0.5830268000718206,Correct,False,False
17,,17,28.57257300009951,Go,space,0.7178499998990446,Correct,False,False
18,,18,29.58817350002937,No_go,space,0.5169221998658031,Incorrect,False,True
19,,19,30.60404859995469,Go,space,0.466507599921897,Correct,False,False
20,,20,31.619564400054514,Go,space,0.4000554999802261,Correct,False,False
21,,21,32.635574399959296,Go,space,0.4165040999650955,Correct,False,False
22,,22,33.65134049998596,No_go,,0.0,Correct,False,False
23,,23,35.672071899985895,Go,space,0.3271523001603782,Correct,False,False
24,,24,36.682097299955785,Go,space,0.5167539999820292,Correct,False,False
25,,25,37.697391299996525,Go,space,0.4833580001723021,Correct,False,False
26,,26,38.71497440012172,Go,space,0.5981657998636365,Correct,False,False
27,,27,39.72911940002814,Go,space,0.4334374999161809,Correct,False,False
28,,28,40.74443870014511,Go,space,0.4332610999699682,Correct,False,False
29,,29,41.76051079994068,No_go,space,0.4523611001204699,Incorrect,False,True
30,,30,42.77614750014618,Go,space,0.4501780001446605,Correct,False,False
31,,31,43.79211700009182,Go,space,0.3835555999539792,Correct,False,False
32,,32,44.80737160006538,Go,space,0.3505579999182373,Correct,False,False
33,,33,45.82289050007239,Go,space,0.3501573000103235,Correct,False,False
34,,34,46.8391227000393,Go,space,0.3833244000561535,Correct,False,False
35,,35,47.8546631000936,No_go,,0.0,Correct,False,False
36,,36,49.87663020007312,No_go,space,0.2762653001118451,Incorrect,False,True
37,,37,50.88521810015664,Go,space,0.566196900093928,Correct,False,False
38,,38,51.9008274001535,No_go,space,0.4166585998609662,Incorrect,False,True
39,,39,52.91668010014109,Go,space,0.4163176999427378,Correct,False,False
40,,40,53.93227420002222,Go,space,0.3495692000724375,Correct,False,False
41,,41,54.947886700043455,Go,space,0.3502710999455303,Correct,False,False
42,,42,55.96368960011751,Go,space,0.4165501000825315,Correct,False,False
43,,43,56.97946329996921,Go,space,0.4000150999054312,Correct,False,False
44,,44,57.99511849996634,Go,space,0.5001952999737114,Correct,False,False
45,1.0,45,64.88120479998179,Go,space,0.7237744999583811,Correct,False,False
46,1.0,46,65.87120950012468,Go,space,0.4499646001495421,Correct,False,False
47,1.0,47,66.87056960002519,Go,space,0.2659088000655174,Correct,False,False
48,1.0,48,67.86955210007727,Go,space,0.2999707998242229,Correct,False,False
49,1.0,49,68.8687166001182,Go,space,0.2994480000343174,Correct,False,False
50,1.0,50,69.86739969998598,No_go,space,0.3001081999391317,Incorrect,False,True
51,1.0,51,70.86667399993166,No_go,space,0.2500291999895125,Incorrect,False,True
52,1.0,52,71.86580820009112,Go,space,0.3662918999325484,Correct,False,False
53,1.0,53,72.86498180008493,Go,space,0.3001902000978589,Correct,False,False
54,1.0,54,73.86389100016095,Go,space,0.3500242000445723,Correct,False,False
55,1.0,55,74.86290660011582,Go,space,0.3163703000172972,Correct,False,False
56,1.0,56,75.8619284001179,Go,space,0.405685800127685,Correct,False,False
57,1.0,57,76.86112909996882,Go,space,0.3830470000393688,Correct,False,False
58,1.0,58,77.8600874999538,Go,space,0.3830766999162733,Correct,False,False
59,1.0,59,78.85922450013459,Go,space,0.3501605000346899,Correct,False,False
60,1.0,60,79.85810320009477,Go,space,0.3998247000854462,Correct,False,False
61,1.0,61,80.85713379993103,No_go,space,0.2834472998511046,Incorrect,False,True
62,1.0,62,81.85634159995243,Go,space,0.316678199917078,Correct,False,False
63,1.0,63,82.8555870000273,Go,space,0.3162944000214338,Correct,False,False
64,1.0,64,83.85468270001002,No_go,space,0.316187199903652,Incorrect,False,True
65,1.0,65,84.85401150002144,Go,space,0.2660750998184085,Correct,False,False
66,1.0,66,85.85290440008976,Go,space,0.367152800085023,Correct,False,False
67,1.0,67,86.85151910013519,Go,space,0.3665366999339312,Correct,False,False
68,1.0,68,87.85063250013627,No_go,space,0.3169148999731987,Incorrect,False,True
69,1.0,69,88.8500258999411,Go,space,0.3016868999693542,Correct,False,False
70,1.0,70,89.84868900012225,Go,space,0.3000115000177175,Correct,False,False
71,1.0,71,90.84790350007825,Go,space,0.2836499998811632,Correct,False,False
72,1.0,72,91.84688100009224,Go,space,0.2692992999218404,Correct,False,False
73,1.0,73,92.8459894999396,Go,space,0.3517573000863194,Correct,False,False
74,1.0,74,93.84504549996927,Go,space,0.3665960999205708,Correct,False,False
75,1.0,75,94.84390440001152,Go,space,0.3668628998566419,Correct,False,False
76,1.0,76,95.84299680008552,Go,space,0.3331375999841839,Correct,False,False
77,1.0,77,96.84226380009204,Go,space,0.3166938999202102,Correct,False,False
78,1.0,78,97.84126340015791,Go,space,0.3166247999761253,Correct,False,False
79,1.0,79,98.84054649993776,Go,space,0.5161337000317872,Correct,False,False
80,1.0,80,99.8393751999829,Go,space,0.4332618999760598,Correct,False,False
81,1.0,81,100.83873550011776,Go,space,0.5332835998851806,Correct,False,False
82,1.0,82,101.83750479994342,Go,space,0.4671793000306934,Correct,False,False
83,1.0,83,102.83699909993447,Go,space,0.4829487001989037,Correct,False,False
84,1.0,84,103.83570930012502,Go,space,0.400323900161311,Correct,False,False
85,1.0,85,104.83474389999174,Go,space,0.4009090000763535,Correct,False,False
86,1.0,86,105.8337654999923,No_go,space,0.3499916000291705,Incorrect,False,True
87,1.0,87,106.83329500001857,Go,space,0.4996612998656928,Correct,False,False
88,1.0,88,107.83179970015772,Go,space,0.4681350998580456,Correct,False,False
89,1.0,89,108.83103140001184,No_go,,0.0,Correct,False,False
90,1.0,90,109.83201889996415,Go,space,0.4330939999781549,Correct,False,False
91,1.0,91,110.8289069000166,Go,space,0.4669243001844734,Correct,False,False
92,1.0,92,111.82826510001904,Go,space,0.4018531001638621,Correct,False,False
93,1.0,93,112.8276597999502,Go,space,0.4329444000031799,Correct,False,False
94,1.0,94,113.82630750001408,Go,space,0.3166545000858605,Correct,False,False
95,1.0,95,114.82533739996144,Go,space,0.3724331001285463,Correct,False,False
96,1.0,96,115.82568909996188,Go,space,0.3656337999273091,Correct,False,False
97,1.0,97,116.8246772000566,Go,space,0.3490119001362473,Correct,False,False
98,1.0,98,117.82274980004875,Go,space,0.3677609998267144,Correct,False,False
99,1.0,99,118.82170770014636,Go,space,0.3176172999665141,Correct,False,False
100,1.0,100,119.82142299995758,Go,space,0.383539899950847,Correct,False,False
101,1.0,101,120.82003269996494,Go,space,0.4336224999278784,Correct,False,False
102,1.0,102,121.8196463000495,Go,space,0.416216199984774,Correct,False,False
103,1.0,103,122.81844620010816,No_go,space,0.4193430000450462,Incorrect,False,True
104,1.0,104,123.8180448000785,Go,space,0.4164567999541759,Correct,False,False
105,1.0,105,124.8172288001515,No_go,space,0.4020922998897731,Incorrect,False,True
106,1.0,106,125.81599320005624,Go,space,0.3992902000900358,Correct,False,False
107,1.0,107,126.81546419998632,Go,space,0.4165217000991106,Correct,False,False
108,1.0,108,127.81450340012088,Go,space,0.3494816999882459,Correct,False,False
109,1.0,109,128.81316200015135,No_go,space,0.3339668000116944,Incorrect,False,True
110,1.0,110,129.8112987999339,Go,space,0.3833848999347538,Correct,False,False
111,1.0,111,130.8108477999922,Go,space,0.3330045000184327,Correct,False,False
112,1.0,112,131.81014910014346,Go,space,0.3160590999759733,Correct,False,False
113,1.0,113,132.80902669997886,No_go,space,0.4175539999268949,Incorrect,False,True
114,1.0,114,133.80807309993543,No_go,space,0.316423799842596,Incorrect,False,True
115,1.0,115,134.80687150009908,No_go,,0.0,Correct,False,False
116,1.0,116,135.80615380010568,Go,space,0.4842226998880505,Correct,False,False
117,1.0,117,136.80479870014824,Go,space,0.3834206000901758,Correct,False,False
118,1.0,118,137.80393170006573,Go,space,0.3835299001075327,Correct,False,False
119,1.0,119,138.80302230012603,No_go,,0.0,Correct,False,False
120,1.0,120,139.80165929999202,No_go,space,0.3503889001440257,Incorrect,False,True
121,1.0,121,140.80101269995794,Go,space,0.5842540001031011,Correct,False,False
122,1.0,122,141.80018010013737,No_go,space,0.4503096998669207,Incorrect,False,True
123,1.0,123,142.79922099993564,Go,space,0.4999066998716444,Correct,False,False
124,1.0,124,143.79834320000373,Go,space,0.3996997000649571,Correct,False,False
125,1.0,125,144.79792040004395,Go,space,0.3999252000357955,Correct,False,False
126,1.0,126,145.79673149995506,Go,space,0.4165525001008063,Correct,False,False
127,1.0,127,146.7956805001013,Go,space,0.4495939998887479,Correct,False,False
128,1.0,128,147.79480320005678,Go,space,0.4180407000239938,Correct,False,False
129,1.0,129,148.79372510011308,Go,space,0.4999497001990676,Correct,False,False
130,1.0,130,149.79245009995066,No_go,space,0.4335724001284688,Incorrect,False,True
131,1.0,131,150.7918943001423,Go,space,0.3996961000375449,Correct,False,False
132,1.0,132,151.79059690004215,No_go,,0.0,Correct,False,False
133,1.0,133,152.79041550005786,Go,space,0.2348060000222176,Correct,False,False
134,1.0,134,153.78916590008885,Go,space,0.3499652000609785,Correct,False,False
135,2.0,135,168.8731722999364,No_go,,0.0,Correct,False,False
136,2.0,136,169.87425939994864,Go,space,0.2330860998481512,Correct,False,False
137,2.0,137,170.8731112999376,Go,space,0.2830145000480115,Correct,False,False
138,2.0,138,171.87202610005625,Go,space,0.2669673999771476,Correct,False,False
139,2.0,139,172.87117219995707,Go,space,0.2667497999500483,Correct,False,False
140,2.0,140,173.87030890001915,Go,space,0.316621100064367,Correct,False,False
141,2.0,141,174.8690426000394,Go,space,0.2499794999603182,Correct,False,False
142,2.0,142,175.86877649999224,Go,space,0.2326068000402301,Correct,False,False
143,2.0,143,176.8673990999814,Go,space,0.250868400093168,Correct,False,False
144,2.0,144,177.86656560003755,Go,space,0.2166774999350309,Correct,False,False
145,2.0,145,178.86594270006754,Go,space,0.2999213999137282,Correct,False,False
146,2.0,146,179.8647408001125,Go,space,0.283518600044772,Correct,False,False
147,2.0,147,180.86471220012757,Go,space,0.2987110000103712,Correct,False,False
148,2.0,148,181.86336760013364,Go,space,0.2830835999920964,Correct,False,False
149,2.0,149,182.86174850002865,Go,space,0.300145799992606,Correct,False,False
150,2.0,150,183.86082660011016,Go,space,0.3669759000185877,Correct,False,False
151,2.0,151,184.86000930005684,Go,space,0.3333467999473214,Correct,False,False
152,2.0,152,185.85898250015453,Go,space,0.3335697001311928,Correct,False,False
153,2.0,153,186.85819249995984,No_go,space,0.4167659999802708,Incorrect,False,True
154,2.0,154,187.85717780003324,Go,space,0.3999735999386757,Correct,False,False
155,2.0,155,188.8563087000512,No_go,,0.0,Correct,False,False
156,2.0,156,189.85512950015251,Go,space,0.3335976998787373,Correct,False,False
157,2.0,157,190.85433020000343,Go,space,0.3857601000927388,Correct,False,False
158,2.0,158,191.85326490015723,Go,space,0.4536432998720556,Correct,False,False
159,2.0,159,192.8529878000263,Go,space,0.4165282000321895,Correct,False,False
160,2.0,160,193.85165220010092,Go,space,0.4168891999870538,Correct,False,False
161,2.0,161,194.85073629999533,Go,space,0.3164164999034256,Correct,False,False
162,2.0,162,195.849444600055,Go,space,0.3336875999812037,Correct,False,False
163,2.0,163,196.84879059996456,Go,space,0.3331977999769151,Correct,False,False
164,2.0,164,197.8476913000923,Go,space,0.3667240999639034,Correct,False,False
165,2.0,165,198.8469251000788,Go,space,0.4332070997916162,Correct,False,False
166,2.0,166,199.84622019995004,Go,space,0.3829923998564482,Correct,False,False
167,2.0,167,200.84549030009657,No_go,,0.0,Correct,False,False
168,2.0,168,201.8440576000139,Go,space,0.3830813001841306,Correct,False,False
169,2.0,169,202.84295450011268,Go,space,0.3842780999839306,Correct,False,False
170,2.0,170,203.84227830008604,Go,space,0.3996809998061508,Correct,False,False
171,2.0,171,204.8414611001499,No_go,space,0.4496340998448431,Incorrect,False,True
172,2.0,172,205.84036409994587,Go,space,0.416397999972105,Correct,False,False
173,2.0,173,206.83930140011944,Go,space,0.4008039000909775,Correct,False,False
174,2.0,174,207.8386697000824,Go,space,0.4501508998218924,Correct,False,False
175,2.0,175,208.8379145001527,Go,space,0.4164557000622153,Correct,False,False
176,2.0,176,209.83650510013103,No_go,space,0.367069800151512,Incorrect,False,True
177,2.0,177,210.83566410001367,Go,space,0.4330798999872058,Correct,False,False
178,2.0,178,211.83458340005015,Go,space,0.4497320000082254,Correct,False,False
179,2.0,179,212.833495200146,Go,space,0.4166959000285715,Correct,False,False
180,2.0,180,213.8328569000587,Go,space,0.3333219001069665,Correct,False,False
181,2.0,181,214.83185590012,Go,space,0.3686512000858783,Correct,False,False
182,2.0,182,215.83083999995145,Go,space,0.3003584998659789,Correct,False,False
183,2.0,183,216.8303007001523,Go,space,0.3163338000886142,Correct,False,False
184,2.0,184,217.829015100142,Go,space,0.3666940000839531,Correct,False,False
185,2.0,185,218.8280601000879,No_go,space,0.4005141998641193,Incorrect,False,True
186,2.0,186,219.82701699994504,Go,space,0.3673010000493377,Correct,False,False
187,2.0,187,220.82626820006408,Go,space,0.3863699999637902,Correct,False,False
188,2.0,188,221.82525769993663,Go,space,0.3508540000766516,Correct,False,False
189,2.0,189,222.82441350002773,Go,space,0.4168318000156432,Correct,False,False
190,2.0,190,223.823592599947,Go,space,0.3833595998585224,Correct,False,False
191,2.0,191,224.8225531000644,Go,space,0.4001546001527458,Correct,False,False
192,2.0,192,225.82178999995813,Go,space,0.383157999953255,Correct,False,False
193,2.0,193,226.8207765000407,Go,space,0.4177268999628722,Correct,False,False
194,2.0,194,227.81986839999445,Go,space,0.4004734000191092,Correct,False,False
195,2.0,195,228.81905749998987,No_go,,0.0,Correct,False,False
196,2.0,196,229.817804899998,Go,space,0.3686084998771548,Correct,False,False
197,2.0,197,230.8171238999348,Go,space,0.4169042999856174,Correct,False,False
198,2.0,198,231.81654170015827,Go,space,0.399212900083512,Correct,False,False
199,2.0,199,232.81492669996803,Go,space,0.3838625000789761,Correct,False,False
200,2.0,200,233.8142884001136,Go,space,0.3998781000263989,Correct,False,False
201,2.0,201,234.8132661001291,Go,space,0.3670693999156356,Correct,False,False
202,2.0,202,235.8121549000498,Go,space,0.3998919001314789,Correct,False,False
203,2.0,203,236.8109588001389,Go,space,0.4336657000239938,Correct,False,False
204,2.0,204,237.81065919995308,Go,space,0.500026699854061,Correct,False,False
205,2.0,205,238.80983630009,No_go,,0.0,Correct,False,False
206,2.0,206,239.80858070007525,No_go,space,0.2334013998042792,Incorrect,False,True
207,2.0,207,240.8077732999809,Go,space,0.5496803000569344,Correct,False,False
208,2.0,208,241.80673890002072,No_go,,0.0,Correct,False,False
209,2.0,209,242.80577710014768,Go,space,0.2997518999036401,Correct,False,False
210,2.0,210,243.8047197000124,No_go,space,0.3673032999504357,Incorrect,False,True
211,2.0,211,244.80376909999177,Go,space,0.4684414002113044,Correct,False,False
212,2.0,212,245.8031750000082,Go,space,0.467444600071758,Correct,False,False
213,2.0,213,246.80260180006732,Go,space,0.4660781000275165,Correct,False,False
214,2.0,214,247.80109390011057,Go,space,0.4835699000395834,Correct,False,False
215,2.0,215,248.8002913000528,Go,space,0.4666496999561786,Correct,False,False
216,2.0,216,249.7991794999689,No_go,space,0.4333923999220133,Incorrect,False,True
217,2.0,217,250.7988636000082,No_go,,0.0,Correct,False,False
218,2.0,218,251.7973005999811,No_go,,0.0,Correct,False,False
219,2.0,219,252.7965675999876,Go,space,0.2836192001122981,Correct,False,False
220,2.0,220,253.7955241999589,Go,space,0.499903199961409,Correct,False,False
221,2.0,221,254.7942876000889,No_go,space,0.4173270999453962,Incorrect,False,True
222,2.0,222,255.7935844999738,Go,space,0.3999412998091429,Correct,False,False
223,2.0,223,256.7928808999713,No_go,space,0.333228399977088,Incorrect,False,True
224,2.0,224,257.79182579997,No_go,,0.0,Correct,False,False
225,3.0,225,277.1248187001329,Go,space,0.6490952000021935,Correct,False,False
226,3.0,226,278.1227828001138,Go,space,0.4500941000878811,Correct,False,False
227,3.0,227,279.1217326000333,Go,space,0.3167979000136256,Correct,False,False
228,3.0,228,280.12113400013186,No_go,space,0.3163964000996202,Incorrect,False,True
229,3.0,229,281.1201965000946,Go,space,0.3663433000911027,Correct,False,False
230,3.0,230,282.1195253999904,No_go,space,0.2994468999095261,Incorrect,False,True
231,3.0,231,283.118160400074,Go,space,0.4331718001049012,Correct,False,False
232,3.0,232,284.1171401999891,Go,space,0.2846798000391572,Correct,False,False
233,3.0,233,285.1162295001559,Go,space,0.3000579001381993,Correct,False,False
234,3.0,234,286.11528489994816,Go,space,0.3352306000888347,Correct,False,False
235,3.0,235,287.1144600000698,Go,space,0.4170071000698954,Correct,False,False
236,3.0,236,288.11340430006385,Go,space,0.3501516000833362,Correct,False,False
237,3.0,237,289.11251380015165,Go,space,0.3000569001305848,Correct,False,False
238,3.0,238,290.11161909997463,Go,space,0.3663880999665707,Correct,False,False
239,3.0,239,291.11072540003806,Go,space,0.2668932999949902,Correct,False,False
240,3.0,240,292.1096661000047,Go,space,0.3169887000694871,Correct,False,False
241,3.0,241,293.1087218001485,No_go,space,0.3333595001604408,Incorrect,False,True
242,3.0,242,294.107706699986,Go,space,0.4004498000722378,Correct,False,False
243,3.0,243,295.1070606999565,Go,space,0.3667468000203371,Correct,False,False
244,3.0,244,296.1060236999765,No_go,space,0.3337331998627633,Incorrect,False,True
245,3.0,245,297.1049103999976,Go,space,0.4337716998998076,Correct,False,False
246,3.0,246,298.1040909001604,Go,space,0.4001132000703364,Correct,False,False
247,3.0,247,299.10307050007395,Go,space,0.3335398999042809,Correct,False,False
248,3.0,248,300.10211970005184,Go,space,0.3169446000829339,Correct,False,False
249,3.0,249,301.10135440016165,No_go,,0.0,Correct,False,False
250,3.0,250,302.10055800015107,Go,space,0.3665082000661641,Correct,False,False
251,3.0,251,303.0998808001168,Go,space,0.3330120001919567,Correct,False,False
252,3.0,252,304.09862900013104,Go,space,0.5493999000173062,Correct,False,False
253,3.0,253,305.09768870007247,Go,space,0.4336306001059711,Correct,False,False
254,3.0,254,306.09667120012455,Go,space,0.3333562000188976,Correct,False,False
255,3.0,255,307.095590100158,Go,space,0.4665139999706298,Correct,False,False
256,3.0,256,308.09478919999674,No_go,space,0.4498054999858141,Incorrect,False,True
257,3.0,257,309.09411860001273,Go,space,0.3664273000322282,Correct,False,False
258,3.0,258,310.0927979000844,Go,space,0.4000635999254882,Correct,False,False
259,3.0,259,311.0921116999816,Go,space,0.3836735999211669,Correct,False,False
260,3.0,260,312.0910439,No_go,,0.0,Correct,False,False
261,3.0,261,313.09009780013,Go,space,0.3852762000169605,Correct,False,False
262,3.0,262,314.0891303000972,Go,space,0.3000577997881919,Correct,False,False
263,3.0,263,315.08822529995814,Go,space,0.5996465999633074,Correct,False,False
264,3.0,264,316.0874944999814,Go,space,0.4995029000565409,Correct,False,False
265,3.0,265,317.08637070003897,Go,space,0.4829663999844342,Correct,False,False
266,3.0,266,318.08542770007625,No_go,,0.0,Correct,False,False
267,3.0,267,319.08452680008486,No_go,space,0.3332712000701576,Incorrect,False,True
268,3.0,268,320.0836670000572,Go,space,0.5017651999369264,Correct,False,False
269,3.0,269,321.0827389000915,Go,space,0.8324663999956101,Correct,False,False
270,3.0,270,322.0816643999424,Go,space,0.7831217998173088,Correct,False,False
271,3.0,271,323.08068160014227,No_go,space,0.5495174000971019,Incorrect,False,True
272,3.0,272,324.0801340001635,Go,space,0.4336001998744905,Correct,False,False
273,3.0,273,325.0786616001278,No_go,,0.0,Correct,False,False
274,3.0,274,326.0778274999466,Go,space,0.2726769000291824,Correct,False,False
275,3.0,275,327.07710730005056,Go,space,0.5162424000445753,Correct,False,False
276,3.0,276,328.0760240999516,Go,space,0.5165730000007898,Correct,False,False
277,3.0,277,329.0751064000651,No_go,,0.0,Correct,False,False
278,3.0,278,330.0744120001327,Go,space,0.3500016999896616,Correct,False,False
279,3.0,279,331.0734164000023,No_go,,0.0,Correct,False,False
280,3.0,280,332.07368080015294,Go,space,0.365203000139445,Correct,False,False
281,3.0,281,333.0715350001119,Go,space,0.5325782001018524,Correct,False,False
282,3.0,282,334.07022390002385,Go,space,0.5184969999827445,Correct,False,False
283,3.0,283,335.0695921999868,Go,space,0.5166509000118822,Correct,False,False
284,3.0,284,336.0687754000537,Go,space,0.4848710999358445,Correct,False,False
285,3.0,285,337.0678155000787,Go,space,0.4329237998463213,Correct,False,False
286,3.0,286,338.0667222000193,Go,space,0.516780500067398,Correct,False,False
287,3.0,287,339.0658909000922,Go,space,0.5164673000108451,Correct,False,False
288,3.0,288,340.0649836000521,Go,space,0.4497805000282824,Correct,False,False
289,3.0,289,341.06396690011024,Go,space,0.3836040999740362,Correct,False,False
290,3.0,290,342.06298059993424,Go,space,0.4833479998633265,Correct,False,False
291,3.0,291,343.0620576001238,Go,space,0.6666856000665575,Correct,False,False
292,3.0,292,344.0609353999607,Go,space,0.4666900997981429,Correct,False,False
293,3.0,293,345.0602095001377,No_go,,0.0,Correct,False,False
294,3.0,294,346.0597521001473,No_go,,0.0,Correct,False,False
295,3.0,295,347.05839550006203,Go,space,0.5997043999377638,Correct,False,False
296,3.0,296,348.0574235999957,No_go,,0.0,Correct,False,False
297,3.0,297,349.0568401999772,Go,space,0.3997444999404251,Correct,False,False
298,3.0,298,350.0556981000118,Go,space,0.400851699989289,Correct,False,False
299,3.0,299,351.05461929994635,Go,space,0.4666617999318987,Correct,False,False
300,3.0,300,352.0536412000656,No_go,,0.0,Correct,False,False
301,3.0,301,353.0531343999319,Go,space,0.3326074001379311,Correct,False,False
302,3.0,302,354.05176079995,Go,space,0.3362420001067221,Correct,False,False
303,3.0,303,355.05090590007603,Go,space,0.4167309999465942,Correct,False,False
304,3.0,304,356.0506553000305,Go,space,0.4169348999857902,Correct,False,False
305,3.0,305,357.04898590012453,Go,space,0.4171517000067979,Correct,False,False
306,3.0,306,358.04854370001704,Go,space,0.3997601000592112,Correct,False,False
307,3.0,307,359.0469684000127,Go,space,0.4501514001749456,Correct,False,False
308,3.0,308,360.0461949999444,No_go,space,0.3666664999909699,Incorrect,False,True
309,3.0,309,361.0454069999978,Go,space,0.4333266001194715,Correct,False,False
310,3.0,310,362.0446434000041,Go,space,0.3500967998988926,Correct,False,False
311,3.0,311,363.04336920008063,Go,space,0.4334748999681324,Correct,False,False
312,3.0,312,364.04259680002,Go,space,0.3164753001183271,Correct,False,False
313,3.0,313,365.0421295999549,Go,space,0.3164663999341428,Correct,False,False
314,3.0,314,366.040421700105,Go,space,0.383382000029087,Correct,False,False
315,4.0,315,395.1804627999664,Go,space,0.5832185999024659,Correct,False,False
316,4.0,316,396.1793031999841,Go,space,0.416476699989289,Correct,False,False
317,4.0,317,397.1786217000336,Go,space,0.282934800023213,Correct,False,False
318,4.0,318,398.1772583001293,Go,space,0.3002406000159681,Correct,False,False
319,4.0,319,399.17665300006047,Go,space,0.3328347001224756,Correct,False,False
320,4.0,320,400.1753398000728,No_go,space,0.3667071999516338,Incorrect,False,True
321,4.0,321,401.1744212999474,Go,space,0.2835177998058498,Correct,False,False
322,4.0,322,402.1733634001576,Go,space,0.3170125000178814,Correct,False,False
323,4.0,323,403.172736500157,Go,space,0.416672500083223,Correct,False,False
324,4.0,324,404.17189640016295,Go,space,0.3167713000439107,Correct,False,False
325,4.0,325,405.170846800087,Go,space,0.433291699970141,Correct,False,False
326,4.0,326,406.1698378000874,Go,space,0.3502006998751312,Correct,False,False
327,4.0,327,407.16853470006026,Go,space,0.2667251999955624,Correct,False,False
328,4.0,328,408.1680409000255,Go,space,0.3837105000857264,Correct,False,False
329,4.0,329,409.16727129998617,No_go,space,0.3998433002270758,Incorrect,False,True
330,4.0,330,410.1661706999876,Go,space,0.2997823001351207,Correct,False,False
331,4.0,331,411.1649207000155,Go,space,0.3499690999742597,Correct,False,False
332,4.0,332,412.1641697001178,Go,space,0.3165204001124948,Correct,False,False
333,4.0,333,413.1632447000593,Go,space,0.3670198998879641,Correct,False,False
334,4.0,334,414.1626558001153,Go,space,0.3331595999188721,Correct,False,False
335,4.0,335,415.1615271000192,Go,space,0.3162877999711782,Correct,False,False
336,4.0,336,416.1603111999575,Go,space,0.2835303000174463,Correct,False,False
337,4.0,337,417.1599672001321,Go,space,0.2994155001360923,Correct,False,False
338,4.0,338,418.15875119995326,No_go,space,0.3164289998821914,Incorrect,False,True
339,4.0,339,419.1577405000571,Go,space,0.3167165999766439,Correct,False,False
340,4.0,340,420.1569189999718,No_go,space,0.4330784000921994,Incorrect,False,True
341,4.0,341,421.1558696001303,No_go,space,0.2669084998778999,Incorrect,False,True
342,4.0,342,422.1546422999818,Go,space,0.4667720999568701,Correct,False,False
343,4.0,343,423.15432420000434,Go,space,0.4159484000410884,Correct,False,False
344,4.0,344,424.15280340006575,Go,space,0.3177426001057029,Correct,False,False
345,4.0,345,425.1521288000513,Go,space,0.3174755999352783,Correct,False,False
346,4.0,346,426.1510900000576,Go,space,0.3340670000761747,Correct,False,False
347,4.0,347,427.1501887000632,Go,space,0.4003223001491278,Correct,False,False
348,4.0,348,428.14953409996815,No_go,,0.0,Correct,False,False
349,4.0,349,429.1484221999999,No_go,space,0.3998720999807119,Incorrect,False,True
350,4.0,350,430.14774270006455,Go,space,0.416198399849236,Correct,False,False
351,4.0,351,431.1464895999525,Go,space,0.3832857999950647,Correct,False,False
352,4.0,352,432.1454839999788,Go,space,0.3166809999383986,Correct,False,False
353,4.0,353,433.1446470001247,Go,space,0.368265800178051,Correct,False,False
354,4.0,354,434.1433509001509,No_go,space,0.317515900125727,Incorrect,False,True
355,4.0,355,435.14274749998,Go,space,0.3665648999158293,Correct,False,False
356,4.0,356,436.1417942000553,Go,space,0.4499768998939544,Correct,False,False
357,4.0,357,437.1409026000183,Go,space,0.3666796998586505,Correct,False,False
358,4.0,358,438.1398976000492,No_go,space,0.4504544001538306,Incorrect,False,True
359,4.0,359,439.1391378000844,Go,space,0.400003399932757,Correct,False,False
360,4.0,360,440.1380352000706,Go,space,0.3836531999986619,Correct,False,False
361,4.0,361,441.1373288999312,Go,space,0.3355825999751687,Correct,False,False
362,4.0,362,442.13645810005255,Go,space,0.3331806999631226,Correct,False,False
363,4.0,363,443.1365021001548,Go,space,0.2986961000133306,Correct,False,False
364,4.0,364,444.1347256000154,Go,space,0.3181487999390811,Correct,False,False
365,4.0,365,445.1333523001522,Go,space,0.28321130014956,Correct,False,False
366,4.0,366,446.1326345000416,Go,space,0.2669569000136107,Correct,False,False
367,4.0,367,447.1316478999797,Go,space,0.299773900071159,Correct,False,False
368,4.0,368,448.13077439996414,No_go,space,0.3000425999052822,Incorrect,False,True
369,4.0,369,449.1295938999392,Go,space,0.3001451999880373,Correct,False,False
370,4.0,370,450.1285059000365,Go,space,0.4000197001732886,Correct,False,False
371,4.0,371,451.127778199967,Go,space,0.3501604998018592,Correct,False,False
372,4.0,372,452.126666800119,Go,space,0.3337052999995649,Correct,False,False
373,4.0,373,453.12587590003386,Go,space,0.3502550001721829,Correct,False,False
374,4.0,374,454.1250772001222,Go,space,0.3169332998804748,Correct,False,False
375,4.0,375,455.1243410001043,No_go,space,0.3686410000082105,Incorrect,False,True
376,4.0,376,456.1232100001071,No_go,space,0.2998521002009511,Incorrect,False,True
377,4.0,377,457.12244649999775,Go,space,0.4330991001334041,Correct,False,False
378,4.0,378,458.121287100017,No_go,space,0.3169178999960422,Incorrect,False,True
379,4.0,379,459.1203948000912,Go,space,0.350373099790886,Correct,False,False
380,4.0,380,460.1195309001487,Go,space,0.3500061000231653,Correct,False,False
381,4.0,381,461.118914199993,Go,space,0.4326943999622017,Correct,False,False
382,4.0,382,462.1176019001287,Go,space,0.3832960000727325,Correct,False,False
383,4.0,383,463.1165484001394,No_go,space,0.3690418999176472,Incorrect,False,True
384,4.0,384,464.115484100068,No_go,space,0.2669087001122534,Incorrect,False,True
385,4.0,385,465.11466790013947,Go,space,0.3666287001688033,Correct,False,False
386,4.0,386,466.1140954999719,Go,space,0.3666558999102562,Correct,False,False
387,4.0,387,467.11310730013065,Go,space,0.4664090999867767,Correct,False,False
388,4.0,388,468.1122127999552,Go,space,0.4329758000094443,Correct,False,False
389,4.0,389,469.1110561999958,Go,space,0.4167750000488013,Correct,False,False
390,4.0,390,470.1100145999808,Go,space,0.2838957998901605,Correct,False,False
391,4.0,391,471.10906810010783,No_go,space,0.2837239999789744,Incorrect,False,True
392,4.0,392,472.1080471000169,No_go,space,0.2674450001213699,Incorrect,False,True
393,4.0,393,473.1071156000253,Go,space,0.4673685000743717,Correct,False,False
394,4.0,394,474.1066056001,Go,space,0.3671214000787586,Correct,False,False
395,4.0,395,475.10654520010576,Go,space,0.2825607000850141,Correct,False,False
396,4.0,396,476.104630399961,Go,space,0.2832261999137699,Correct,False,False
397,4.0,397,477.1037264000624,Go,space,0.2694452998694032,Correct,False,False
398,4.0,398,478.103012500098,No_go,space,0.2829823000356555,Incorrect,False,True
399,4.0,399,479.1015769001097,Go,space,0.2667790001723915,Correct,False,False
400,4.0,400,480.10078720003366,Go,space,0.3166561000980437,Correct,False,False
401,4.0,401,481.0998601000756,Go,space,0.3498579999431968,Correct,False,False
402,4.0,402,482.0988923001569,Go,space,0.4184123000595718,Correct,False,False
403,4.0,403,483.0976962000132,Go,space,0.366959200007841,Correct,False,False
404,4.0,404,484.0969438999891,Go,space,0.3174038999713957,Correct,False,False
405,5.0,405,504.4104389999993,Go,space,0.6176421002019197,Correct,False,False
406,5.0,406,505.4106243001297,No_go,space,0.2997188998851925,Incorrect,False,True
407,5.0,407,506.40947000007145,Go,space,0.3501166999340057,Correct,False,False
408,5.0,408,507.40866950014606,Go,space,0.3165692000184208,Correct,False,False
409,5.0,409,508.4077682001516,Go,space,0.3344196998514235,Correct,False,False
410,5.0,410,509.4068329001311,Go,space,0.282900899881497,Correct,False,False
411,5.0,411,510.4054946999531,No_go,space,0.2677900998387486,Incorrect,False,True
412,5.0,412,511.405196600128,Go,space,0.3499477000441402,Correct,False,False
413,5.0,413,512.4041910001542,Go,space,0.3661521000321954,Correct,False,False
414,5.0,414,513.4027581999544,Go,space,0.3333918999414891,Correct,False,False
415,5.0,415,514.4021473999601,Go,space,0.36654939991422,Correct,False,False
416,5.0,416,515.4010314999614,Go,space,0.3003845000639558,Correct,False,False
417,5.0,417,516.4666763001587,Go,space,0.3338490000460297,Correct,False,False
418,5.0,418,517.465786700137,Go,space,0.2835492000449449,Correct,False,False
419,5.0,419,518.46498290007,Go,space,0.3499308000318706,Correct,False,False
420,5.0,420,519.4637567000464,Go,space,0.2667415000032633,Correct,False,False
421,5.0,421,520.4629182000645,Go,space,0.3168406998738646,Correct,False,False
422,5.0,422,521.4620536000002,Go,space,0.2671543001197278,Correct,False,False
423,5.0,423,522.4609791999683,Go,space,0.3498875999357551,Correct,False,False
424,5.0,424,523.4604257999454,Go,space,0.3665638000238687,Correct,False,False
425,5.0,425,524.4590402001049,Go,space,0.3502891000825912,Correct,False,False
426,5.0,426,525.458213099977,Go,space,0.266524099977687,Correct,False,False
427,5.0,427,526.4572685000021,Go,space,0.2500956000294536,Correct,False,False
428,5.0,428,527.456643300131,No_go,space,0.283167399931699,Incorrect,False,True
429,5.0,429,528.4557604000438,No_go,space,0.3829202000051737,Incorrect,False,True
430,5.0,430,529.4547007000074,No_go,space,0.4332886000629514,Incorrect,False,True
431,5.0,431,530.453733399976,Go,space,0.5163700999692082,Correct,False,False
432,5.0,432,531.4528475999832,Go,space,0.5497553998138756,Correct,False,False
433,5.0,433,532.4520568000153,Go,space,0.41660390002653,Correct,False,False
434,5.0,434,533.4506994001567,Go,space,0.2836474000941962,Correct,False,False
435,5.0,435,534.4505891001318,Go,space,0.3660190000664443,Correct,False,False
436,5.0,436,535.4488745999988,Go,space,0.2702391999773681,Correct,False,False
437,5.0,437,536.4480492000002,Go,space,0.3001812999136746,Correct,False,False
438,5.0,438,537.4470021999441,Go,space,0.2670284998603165,Correct,False,False
439,5.0,439,538.446202600142,No_go,space,0.3171786000020802,Incorrect,False,True
440,5.0,440,539.4452098000329,Go,space,0.6166262000333518,Correct,False,False
441,5.0,441,540.444433900062,Go,space,0.466565900016576,Correct,False,False
442,5.0,442,541.4431733000092,Go,space,0.4679568000137806,Correct,False,False
443,5.0,443,542.4427472001407,Go,space,0.3998863000888377,Correct,False,False
444,5.0,444,543.4431958999485,Go,space,0.2818523000460118,Correct,False,False
445,5.0,445,544.4405586000066,Go,space,0.3332628000061959,Correct,False,False
446,5.0,446,545.440107600065,No_go,space,0.1997843999415636,Incorrect,False,True
447,5.0,447,546.4388592001051,Go,space,0.549810100113973,Correct,False,False
448,5.0,448,547.4378075001296,Go,space,0.3832076999824494,Correct,False,False
449,5.0,449,548.436887799995,Go,space,0.4163422998972237,Correct,False,False
450,5.0,450,549.4359061999712,No_go,space,0.3665491999126971,Incorrect,False,True
451,5.0,451,550.4349720999599,Go,space,0.2998653000686317,Correct,False,False
452,5.0,452,551.4339344999753,Go,space,0.3667701999656856,Correct,False,False
453,5.0,453,552.4332777999807,Go,space,0.3330182998906821,Correct,False,False
454,5.0,454,553.4322524999734,No_go,,0.0,Correct,False,False
455,5.0,455,554.4312526001595,Go,space,0.3162428999785334,Correct,False,False
456,5.0,456,555.4303037000354,Go,space,0.3665138999931514,Correct,False,False
457,5.0,457,556.4292659000494,Go,space,0.4165419999044388,Correct,False,False
458,5.0,458,557.4284548000433,Go,space,0.4830517000518739,Correct,False,False
459,5.0,459,558.4275175000075,Go,space,0.5999440001323819,Correct,False,False
460,5.0,460,559.4267421001568,No_go,space,0.4999298001639545,Incorrect,False,True
461,5.0,461,560.4261531000957,No_go,,0.0,Correct,False,False
462,5.0,462,561.4248740000185,Go,space,0.2665532999671995,Correct,False,False
463,5.0,463,562.423845600104,Go,space,0.3503413000144064,Correct,False,False
464,5.0,464,563.4228545001242,Go,space,0.3000990999862551,Correct,False,False
465,5.0,465,564.4219331000932,No_go,space,0.3832952999509871,Incorrect,False,True
466,5.0,466,565.420653300127,No_go,,0.0,Correct,False,False
467,5.0,467,566.4199856000487,Go,space,0.3998497000429779,Correct,False,False
468,5.0,468,567.4192937000189,Go,space,0.4331086000893265,Correct,False,False
469,5.0,469,568.4181624001358,Go,space,0.5334552000276744,Correct,False,False
470,5.0,470,569.4172410001047,Go,space,0.4001226997934282,Correct,False,False
471,5.0,471,570.4161859999876,No_go,space,0.3680953001603484,Incorrect,False,True
472,5.0,472,571.4153187000193,Go,space,0.4002180001698434,Correct,False,False
473,5.0,473,572.4150861999951,Go,space,0.4157843000721186,Correct,False,False
474,5.0,474,573.4136445999611,Go,space,0.4664352999534458,Correct,False,False
475,5.0,475,574.4127390999347,Go,space,0.4176102001219988,Correct,False,False
476,5.0,476,575.4118059000466,Go,space,0.4169818998780101,Correct,False,False
477,5.0,477,576.4105142001063,Go,space,0.4170476000290364,Correct,False,False
478,5.0,478,577.4100085999817,Go,space,0.366587100084871,Correct,False,False
479,5.0,479,578.4089625000488,Go,space,0.3331948998384177,Correct,False,False
480,5.0,480,579.4081349000335,Go,space,0.3008055998943746,Correct,False,False
481,5.0,481,580.4069964000955,Go,space,0.250050799921155,Correct,False,False
482,5.0,482,581.4062811001204,Go,space,0.2995166999753564,Correct,False,False
483,5.0,483,582.4051048001274,Go,space,0.2832818999886513,Correct,False,False
484,5.0,484,583.4041965000797,No_go,space,0.2334225000813603,Incorrect,False,True
485,5.0,485,584.4031150001101,Go,space,0.3510966000612825,Correct,False,False
486,5.0,486,585.4023033999838,Go,space,0.3007538998499512,Correct,False,False
487,5.0,487,586.401735200081,Go,space,0.2662923999596387,Correct,False,False
488,5.0,488,587.4004569000099,Go,space,0.26670189993456,Correct,False,False
489,5.0,489,588.3997917999513,Go,space,0.2664753999561071,Correct,False,False
490,5.0,490,589.3989273000043,Go,space,0.3163294000551104,Correct,False,False
491,5.0,491,590.3975232001394,No_go,space,0.3002069001086056,Incorrect,False,True
492,5.0,492,591.3968134999741,No_go,space,0.3333014000672847,Incorrect,False,True
493,5.0,493,592.3960808999836,No_go,,0.0,Correct,False,False
494,5.0,494,593.394921900006,Go,space,0.3509124999400228,Correct,False,False
495,6.0,495,608.5740436001215,Go,space,0.4399775001220405,Correct,False,False
496,6.0,496,609.5630556000397,Go,space,0.2833396000787616,Correct,False,False
497,6.0,497,610.5621267000679,No_go,space,0.2164233999792486,Incorrect,False,True
498,6.0,498,611.5609957000706,No_go,space,0.2838952001184225,Incorrect,False,True
499,6.0,499,612.5602005999535,Go,space,0.4333584001287818,Correct,False,False
500,6.0,500,613.5592833000701,Go,space,0.299893399933353,Correct,False,False
501,6.0,501,614.5584851000458,Go,space,0.3331646998412907,Correct,False,False
502,6.0,502,615.5575556000695,No_go,space,0.2684073999989778,Incorrect,False,True
503,6.0,503,616.5568995000795,Go,space,0.299617099808529,Correct,False,False
504,6.0,504,617.5556974001229,Go,space,0.3665982999373227,Correct,False,False
505,6.0,505,618.5546226999722,Go,space,0.2665069999638945,Correct,False,False
506,6.0,506,619.5537519000936,Go,space,0.2669160000514239,Correct,False,False
507,6.0,507,620.552706599934,Go,space,0.3336578998714685,Correct,False,False
508,6.0,508,621.5521081001498,Go,space,0.3329527999740094,Correct,False,False
509,6.0,509,622.5509822999593,No_go,space,0.3501214000862092,Incorrect,False,True
510,6.0,510,623.5504167999607,Go,space,0.3828900000080466,Correct,False,False
511,6.0,511,624.5491013000719,No_go,space,0.3009764000307768,Incorrect,False,True
512,6.0,512,625.5479119000956,Go,space,0.2501385000068694,Correct,False,False
513,6.0,513,626.5474350999575,Go,space,0.2999750000890344,Correct,False,False
514,6.0,514,627.5459994000848,Go,space,0.2336151001509279,Correct,False,False
515,6.0,515,628.545418499969,Go,space,0.2998812000732869,Correct,False,False
516,6.0,516,629.5445268000476,No_go,space,0.3667429001070559,Incorrect,False,True
517,6.0,517,630.5433104999829,Go,space,0.3004179999697953,Correct,False,False
518,6.0,518,631.5428148000501,No_go,,0.0,Correct,False,False
519,6.0,519,632.5417331999633,Go,space,0.1999906999990344,Correct,False,False
520,6.0,520,633.540652200114,Go,space,0.3833575001917779,Correct,False,False
521,6.0,521,634.5396475000307,No_go,space,0.3002391001209616,Incorrect,False,True
522,6.0,522,635.5389648999553,Go,space,0.266595299821347,Correct,False,False
523,6.0,523,636.5377279000822,Go,space,0.2854245998896658,Correct,False,False
524,6.0,524,637.5370451000053,Go,space,0.3664864001329988,Correct,False,False
525,6.0,525,638.535923999967,Go,space,0.2670081998221576,Correct,False,False
526,6.0,526,639.5350593000185,Go,space,0.3334916001185775,Correct,False,False
527,6.0,527,640.5342039000243,Go,space,0.2838689999189228,Correct,False,False
528,6.0,528,641.5328182000667,Go,space,0.284136600093916,Correct,False,False
529,6.0,529,642.5322364000604,Go,space,0.3169019999913871,Correct,False,False
530,6.0,530,643.5311883999966,Go,space,0.2672022001352161,Correct,False,False
531,6.0,531,644.5301848000381,Go,space,0.4498040999751538,Correct,False,False
532,6.0,532,645.5291794000659,Go,space,0.3168929000385105,Correct,False,False
533,6.0,533,646.5283278001007,Go,space,0.3003732000943273,Correct,False,False
534,6.0,534,647.527480199933,Go,space,0.2836956998798996,Correct,False,False
535,6.0,535,648.5263865001034,Go,space,0.3168872001115232,Correct,False,False
536,6.0,536,649.5253781001084,Go,space,0.3005578001029789,Correct,False,False
537,6.0,537,650.5247233000118,No_go,space,0.3335700000170618,Incorrect,False,True
538,6.0,538,651.5236015000846,Go,space,0.2668214999139309,Correct,False,False
539,6.0,539,652.5227988001425,Go,space,0.2686698001343757,Correct,False,False
540,6.0,540,653.5221138000488,No_go,space,0.2831568999681622,Incorrect,False,True
541,6.0,541,654.5210671999957,Go,space,0.3164668001700192,Correct,False,False
542,6.0,542,655.5203464999795,Go,space,0.2501884000375867,Correct,False,False
543,6.0,543,656.5191339999437,No_go,space,0.2335203001275658,Incorrect,False,True
544,6.0,544,657.5182942999527,Go,space,0.2666450999677181,Correct,False,False
545,6.0,545,658.5171680001076,Go,space,0.3006227998994291,Correct,False,False
546,6.0,546,659.516141799977,Go,space,0.3999730998184532,Correct,False,False
547,6.0,547,660.5154226000886,No_go,,0.0,Correct,False,False
548,6.0,548,661.5145523000974,Go,space,0.2513902999926358,Correct,False,False
549,6.0,549,662.5137857000809,Go,space,0.2664749000687152,Correct,False,False
550,6.0,550,663.5126488001551,No_go,space,0.3666679000016302,Incorrect,False,True
551,6.0,551,664.5117568001151,No_go,space,0.3831499998923391,Incorrect,False,True
552,6.0,552,665.5111917001195,Go,space,0.3832226998638361,Correct,False,False
553,6.0,553,666.5098050001543,Go,space,0.3168874999973923,Correct,False,False
554,6.0,554,667.509066700004,Go,space,0.5000159000046551,Correct,False,False
555,6.0,555,668.5081979001407,No_go,space,0.3998049001675099,Incorrect,False,True
556,6.0,556,669.5073828999884,Go,space,0.3994202998001128,Correct,False,False
557,6.0,557,670.5061790000182,Go,space,0.3162020999006927,Correct,False,False
558,6.0,558,671.5050751001108,Go,space,0.4340117999818176,Correct,False,False
559,6.0,559,672.5045052000787,Go,space,0.3169597000814974,Correct,False,False
560,6.0,560,673.5031056001317,Go,space,0.33361960016191,Correct,False,False
561,6.0,561,674.502351900097,No_go,,0.0,Correct,False,False
562,6.0,562,675.5014494000934,Go,space,0.2501505999825895,Correct,False,False
563,6.0,563,676.5002679000609,Go,space,0.3000922000501305,Correct,False,False
564,6.0,564,677.4994870999362,Go,space,0.30058279982768,Correct,False,False
565,6.0,565,678.4985501000192,Go,space,0.4348267999012023,Correct,False,False
566,6.0,566,679.4977272001561,Go,space,0.5160181000828743,Correct,False,False
567,6.0,567,680.4967756001279,Go,space,0.5001117000356317,Correct,False,False
568,6.0,568,681.495982500026,Go,space,0.4329595000017434,Correct,False,False
569,6.0,569,682.4949807999656,Go,space,0.3832652000710368,Correct,False,False
570,6.0,570,683.4938517999835,Go,space,0.3667249002028256,Correct,False,False
571,6.0,571,684.4931256000418,Go,space,0.3166865000966936,Correct,False,False
572,6.0,572,685.4921882001217,Go,space,0.3502836001571268,Correct,False,False
573,6.0,573,686.4909165001009,Go,space,0.4002761000301689,Correct,False,False
574,6.0,574,687.4901207999792,Go,space,0.4183592998888343,Correct,False,False
575,6.0,575,688.4892585999332,Go,space,0.4496583000291139,Correct,False,False
576,6.0,576,689.4881702000275,Go,space,0.4334607999771833,Correct,False,False
577,6.0,577,690.4877194000874,No_go,space,0.3499135999009013,Incorrect,False,True
578,6.0,578,691.4864793999586,Go,space,0.333288999972865,Correct,False,False
579,6.0,579,692.4859690000303,No_go,,0.0,Correct,False,False
580,6.0,580,693.4844587000553,Go,space,0.2003436998929828,Correct,False,False
581,6.0,581,694.4837644000072,Go,space,0.3000040000770241,Correct,False,False
582,6.0,582,695.4832083999645,Go,space,0.4329099000897258,Correct,False,False
583,6.0,583,696.481925399974,Go,space,0.3335283999331295,Correct,False,False
584,6.0,584,697.4809284999501,Go,space,0.3166326000355184,Correct,False,False
